"banditTrial","block","trialInBlock","singleOption","leftOption","rightOption","choice","feedback","rt","task","trial_type","trial_index","time_elapsed","internal_node_id","participant","turkCode","condition"
"1","1","1","true","","","risky","70","3835","bandit","bandit-task","8","106923","0.0-7.0-0.0","96276","492426","highRank"
"2","1","2","false","context","worst","context","45","1905","bandit","bandit-task","9","111810","0.0-7.0-0.1","96276","492426","highRank"
"3","1","3","false","worst","context","worst","0","1598","bandit","bandit-task","10","116135","0.0-7.0-0.2","96276","492426","highRank"
"4","1","4","false","worst","context","context","100","802","bandit","bandit-task","11","119728","0.0-7.0-0.3","96276","492426","highRank"
"5","1","5","false","worst","context","context","65","1011","bandit","bandit-task","12","123469","0.0-7.0-0.4","96276","492426","highRank"
"6","1","6","true","","","worst","0","755","bandit","bandit-task","13","126960","0.0-7.0-0.5","96276","492426","highRank"
"7","1","7","false","worst","context","context","10","901","bandit","bandit-task","14","130653","0.0-7.0-0.6","96276","492426","highRank"
"8","1","8","false","context","worst","context","19","982","bandit","bandit-task","15","134269","0.0-7.0-0.7","96276","492426","highRank"
"9","1","9","true","","","worst","0","679","bandit","bandit-task","16","137740","0.0-7.0-0.8","96276","492426","highRank"
"10","1","10","false","risky","safe","safe","50","1419","bandit","bandit-task","17","142526","0.0-7.0-0.9","96276","492426","highRank"
"11","1","11","false","context","worst","context","36","955","bandit","bandit-task","18","146263","0.0-7.0-0.10","96276","492426","highRank"
"12","1","12","false","context","worst","context","5","1156","bandit","bandit-task","19","150206","0.0-7.0-0.11","96276","492426","highRank"
"13","1","13","false","risky","safe","safe","50","1499","bandit","bandit-task","20","154578","0.0-7.0-0.12","96276","492426","highRank"
"14","1","14","true","","","context","100","913","bandit","bandit-task","21","158289","0.0-7.0-0.13","96276","492426","highRank"
"15","1","15","false","worst","context","context","43","1489","bandit","bandit-task","22","162382","0.0-7.0-0.14","96276","492426","highRank"
"16","1","16","false","worst","context","context","100","976","bandit","bandit-task","23","165994","0.0-7.0-0.15","96276","492426","highRank"
"17","1","17","false","context","worst","worst","0","836","bandit","bandit-task","24","169541","0.0-7.0-0.16","96276","492426","highRank"
"18","1","18","false","safe","risky","safe","50","891","bandit","bandit-task","25","173045","0.0-7.0-0.17","96276","492426","highRank"
"19","1","19","false","risky","safe","risky","70","705","bandit","bandit-task","26","176349","0.0-7.0-0.18","96276","492426","highRank"
"20","1","20","false","risky","safe","risky","70","786","bandit","bandit-task","27","179718","0.0-7.0-0.19","96276","492426","highRank"
"21","1","21","false","context","worst","context","100","1192","bandit","bandit-task","28","183694","0.0-7.0-0.20","96276","492426","highRank"
"22","1","22","false","context","worst","context","59","748","bandit","bandit-task","29","187072","0.0-7.0-0.21","96276","492426","highRank"
"23","1","23","false","safe","risky","risky","30","957","bandit","bandit-task","30","190535","0.0-7.0-0.22","96276","492426","highRank"
"24","1","24","false","worst","context","context","100","1410","bandit","bandit-task","31","194584","0.0-7.0-0.23","96276","492426","highRank"
"25","1","25","false","worst","context","context","100","857","bandit","bandit-task","32","197970","0.0-7.0-0.24","96276","492426","highRank"
"26","1","26","false","safe","risky","safe","50","830","bandit","bandit-task","33","201520","0.0-7.0-0.25","96276","492426","highRank"
"27","1","27","false","context","worst","context","4","678","bandit","bandit-task","34","204777","0.0-7.0-0.26","96276","492426","highRank"
"28","1","28","false","worst","context","context","14","767","bandit","bandit-task","35","208540","0.0-7.0-0.27","96276","492426","highRank"
"29","1","29","false","safe","risky","safe","50","1024","bandit","bandit-task","36","212191","0.0-7.0-0.28","96276","492426","highRank"
"30","1","30","false","context","worst","context","11","898","bandit","bandit-task","37","215560","0.0-7.0-0.29","96276","492426","highRank"
"31","1","31","false","worst","context","context","37","784","bandit","bandit-task","38","219205","0.0-7.0-0.30","96276","492426","highRank"
"32","1","32","false","context","worst","context","100","672","bandit","bandit-task","39","222452","0.0-7.0-0.31","96276","492426","highRank"
"33","1","33","true","","","context","16","698","bandit","bandit-task","40","225756","0.0-7.0-0.32","96276","492426","highRank"
"34","1","34","false","safe","risky","risky","70","954","bandit","bandit-task","41","229399","0.0-7.0-0.33","96276","492426","highRank"
"35","1","35","true","","","risky","30","623","bandit","bandit-task","42","232750","0.0-7.0-0.34","96276","492426","highRank"
"36","1","36","false","risky","safe","risky","30","690","bandit","bandit-task","43","236029","0.0-7.0-0.35","96276","492426","highRank"
"37","1","37","false","context","worst","context","61","1034","bandit","bandit-task","44","239923","0.0-7.0-0.36","96276","492426","highRank"
"38","1","38","false","risky","safe","safe","50","817","bandit","bandit-task","45","243308","0.0-7.0-0.37","96276","492426","highRank"
"39","1","39","false","context","worst","context","9","660","bandit","bandit-task","46","247078","0.0-7.0-0.38","96276","492426","highRank"
"40","1","40","false","safe","risky","safe","50","1341","bandit","bandit-task","47","250883","0.0-7.0-0.39","96276","492426","highRank"
"41","1","41","true","","","safe","50","625","bandit","bandit-task","48","253944","0.0-7.0-0.40","96276","492426","highRank"
"42","1","42","true","","","safe","50","1055","bandit","bandit-task","49","257463","0.0-7.0-0.41","96276","492426","highRank"
"43","1","43","false","worst","context","context","60","857","bandit","bandit-task","50","261032","0.0-7.0-0.42","96276","492426","highRank"
"44","1","44","false","worst","context","context","100","664","bandit","bandit-task","51","264263","0.0-7.0-0.43","96276","492426","highRank"
"45","2","1","true","","","risky","30","778","bandit","bandit-task","53","271560","0.0-9.0-0.0","96276","492426","highRank"
"46","2","2","false","worst","context","worst","0","721","bandit","bandit-task","54","274820","0.0-9.0-0.1","96276","492426","highRank"
"47","2","3","false","worst","context","context","3","667","bandit","bandit-task","55","278463","0.0-9.0-0.2","96276","492426","highRank"
"48","2","4","false","worst","context","context","63","690","bandit","bandit-task","56","282137","0.0-9.0-0.3","96276","492426","highRank"
"49","2","5","false","context","worst","context","17","596","bandit","bandit-task","57","285402","0.0-9.0-0.4","96276","492426","highRank"
"50","2","6","true","","","worst","0","739","bandit","bandit-task","58","288789","0.0-9.0-0.5","96276","492426","highRank"
"51","2","7","false","context","worst","context","100","628","bandit","bandit-task","59","292146","0.0-9.0-0.6","96276","492426","highRank"
"52","2","8","false","context","worst","context","35","697","bandit","bandit-task","60","295466","0.0-9.0-0.7","96276","492426","highRank"
"53","2","9","true","","","worst","0","696","bandit","bandit-task","61","298674","0.0-9.0-0.8","96276","492426","highRank"
"54","2","10","false","safe","risky","safe","50","658","bandit","bandit-task","62","301943","0.0-9.0-0.9","96276","492426","highRank"
"55","2","11","false","worst","context","context","15","655","bandit","bandit-task","63","305130","0.0-9.0-0.10","96276","492426","highRank"
"56","2","12","false","worst","context","context","1","707","bandit","bandit-task","64","308688","0.0-9.0-0.11","96276","492426","highRank"
"57","2","13","false","risky","safe","risky","70","601","bandit","bandit-task","65","312086","0.0-9.0-0.12","96276","492426","highRank"
"58","2","14","true","","","context","42","485","bandit","bandit-task","66","315252","0.0-9.0-0.13","96276","492426","highRank"
"59","2","15","false","worst","context","worst","0","856","bandit","bandit-task","67","318674","0.0-9.0-0.14","96276","492426","highRank"
"60","2","16","false","context","worst","worst","0","684","bandit","bandit-task","68","322225","0.0-9.0-0.15","96276","492426","highRank"
"61","2","17","false","context","worst","context","18","598","bandit","bandit-task","69","325590","0.0-9.0-0.16","96276","492426","highRank"
"62","2","18","false","risky","safe","safe","50","642","bandit","bandit-task","70","328937","0.0-9.0-0.17","96276","492426","highRank"
"63","2","19","false","risky","safe","risky","30","631","bandit","bandit-task","71","332247","0.0-9.0-0.18","96276","492426","highRank"
"64","2","20","false","risky","safe","safe","50","634","bandit","bandit-task","72","335447","0.0-9.0-0.19","96276","492426","highRank"
"65","2","21","false","context","worst","context","55","531","bandit","bandit-task","73","338716","0.0-9.0-0.20","96276","492426","highRank"
"66","2","22","false","worst","context","worst","0","723","bandit","bandit-task","74","342398","0.0-9.0-0.21","96276","492426","highRank"
"67","2","23","false","safe","risky","risky","30","675","bandit","bandit-task","75","345857","0.0-9.0-0.22","96276","492426","highRank"
"68","2","24","false","worst","context","worst","0","771","bandit","bandit-task","76","349314","0.0-9.0-0.23","96276","492426","highRank"
"69","2","25","false","worst","context","context","8","663","bandit","bandit-task","77","352797","0.0-9.0-0.24","96276","492426","highRank"
"70","2","26","false","risky","safe","safe","50","888","bandit","bandit-task","78","357971","0.0-9.0-0.25","96276","492426","highRank"
"71","2","27","false","worst","context","context","100","1100","bandit","bandit-task","79","362818","0.0-9.0-0.26","96276","492426","highRank"
"72","2","28","false","worst","context","worst","0","574","bandit","bandit-task","80","365917","0.0-9.0-0.27","96276","492426","highRank"
"73","2","29","false","safe","risky","risky","30","1055","bandit","bandit-task","81","369684","0.0-9.0-0.28","96276","492426","highRank"
"74","2","30","false","context","worst","context","100","600","bandit","bandit-task","82","372728","0.0-9.0-0.29","96276","492426","highRank"
"75","2","31","false","context","worst","context","100","723","bandit","bandit-task","83","376016","0.0-9.0-0.30","96276","492426","highRank"
"76","2","32","false","worst","context","context","44","577","bandit","bandit-task","84","378997","0.0-9.0-0.31","96276","492426","highRank"
"77","2","33","true","","","context","40","567","bandit","bandit-task","85","382145","0.0-9.0-0.32","96276","492426","highRank"
"78","2","34","false","safe","risky","risky","30","624","bandit","bandit-task","86","385407","0.0-9.0-0.33","96276","492426","highRank"
"79","2","35","true","","","risky","70","593","bandit","bandit-task","87","388471","0.0-9.0-0.34","96276","492426","highRank"
"80","2","36","false","safe","risky","risky","30","632","bandit","bandit-task","88","391650","0.0-9.0-0.35","96276","492426","highRank"
"81","2","37","false","worst","context","context","100","1047","bandit","bandit-task","89","395398","0.0-9.0-0.36","96276","492426","highRank"
"82","2","38","false","risky","safe","risky","30","830","bandit","bandit-task","90","398925","0.0-9.0-0.37","96276","492426","highRank"
"83","2","39","false","context","worst","context","100","589","bandit","bandit-task","91","401973","0.0-9.0-0.38","96276","492426","highRank"
"84","2","40","false","risky","safe","safe","50","618","bandit","bandit-task","92","405028","0.0-9.0-0.39","96276","492426","highRank"
"85","2","41","true","","","safe","50","551","bandit","bandit-task","93","408062","0.0-9.0-0.40","96276","492426","highRank"
"86","2","42","true","","","safe","50","565","bandit","bandit-task","94","411045","0.0-9.0-0.41","96276","492426","highRank"
"87","2","43","false","worst","context","context","38","979","bandit","bandit-task","95","415129","0.0-9.0-0.42","96276","492426","highRank"
"88","2","44","false","worst","context","context","20","651","bandit","bandit-task","96","418422","0.0-9.0-0.43","96276","492426","highRank"
"89","3","1","true","","","risky","70","658","bandit","bandit-task","98","451271","0.0-11.0-0.0","96276","492426","highRank"
"90","3","2","false","context","worst","context","100","791","bandit","bandit-task","99","454532","0.0-11.0-0.1","96276","492426","highRank"
"91","3","3","false","worst","context","context","64","938","bandit","bandit-task","100","457981","0.0-11.0-0.2","96276","492426","highRank"
"92","3","4","false","context","worst","context","12","681","bandit","bandit-task","101","462880","0.0-11.0-0.3","96276","492426","highRank"
"93","3","5","false","context","worst","context","100","1650","bandit","bandit-task","102","467157","0.0-11.0-0.4","96276","492426","highRank"
"94","3","6","true","","","worst","0","998","bandit","bandit-task","103","471017","0.0-11.0-0.5","96276","492426","highRank"
"95","3","7","false","context","worst","context","41","1330","bandit","bandit-task","104","475844","0.0-11.0-0.6","96276","492426","highRank"
"96","3","8","false","context","worst","context","6","671","bandit","bandit-task","105","479363","0.0-11.0-0.7","96276","492426","highRank"
"97","3","9","true","","","worst","0","530","bandit","bandit-task","106","482313","0.0-11.0-0.8","96276","492426","highRank"
"98","3","10","false","safe","risky","risky","70","990","bandit","bandit-task","107","486719","0.0-11.0-0.9","96276","492426","highRank"
"99","3","11","false","context","worst","context","100","635","bandit","bandit-task","108","490188","0.0-11.0-0.10","96276","492426","highRank"
"100","3","12","false","worst","context","context","15","625","bandit","bandit-task","109","494081","0.0-11.0-0.11","96276","492426","highRank"
"101","3","13","false","risky","safe","risky","30","783","bandit","bandit-task","110","497408","0.0-11.0-0.12","96276","492426","highRank"
"102","3","14","true","","","context","56","500","bandit","bandit-task","111","500416","0.0-11.0-0.13","96276","492426","highRank"
"103","3","15","false","worst","context","context","61","597","bandit","bandit-task","112","504695","0.0-11.0-0.14","96276","492426","highRank"
"104","3","16","false","worst","context","context","100","800","bandit","bandit-task","113","510941","0.0-11.0-0.15","96276","492426","highRank"
"105","3","17","false","worst","context","context","45","1996","bandit","bandit-task","114","515848","0.0-11.0-0.16","96276","492426","highRank"
"106","3","18","false","risky","safe","risky","30","780","bandit","bandit-task","115","519210","0.0-11.0-0.17","96276","492426","highRank"
"107","3","19","false","safe","risky","safe","50","867","bandit","bandit-task","116","522798","0.0-11.0-0.18","96276","492426","highRank"
"108","3","20","false","safe","risky","risky","30","1986","bandit","bandit-task","117","527665","0.0-11.0-0.19","96276","492426","highRank"
"109","3","21","false","worst","context","worst","0","640","bandit","bandit-task","118","530960","0.0-11.0-0.20","96276","492426","highRank"
"110","3","22","false","worst","context","context","57","1650","bandit","bandit-task","119","536384","0.0-11.0-0.21","96276","492426","highRank"
"111","3","23","false","risky","safe","safe","50","1821","bandit","bandit-task","120","540865","0.0-11.0-0.22","96276","492426","highRank"
"112","3","24","false","context","worst","context","7","2340","bandit","bandit-task","121","546223","0.0-11.0-0.23","96276","492426","highRank"
"113","3","25","false","context","worst","context","100","914","bandit","bandit-task","122","549985","0.0-11.0-0.24","96276","492426","highRank"
"114","3","26","false","risky","safe","risky","70","1108","bandit","bandit-task","123","554683","0.0-11.0-0.25","96276","492426","highRank"
"115","3","27","false","context","worst","context","18","928","bandit","bandit-task","124","558203","0.0-11.0-0.26","96276","492426","highRank"
"116","3","28","false","worst","context","context","100","138431","bandit","bandit-task","125","700142","0.0-11.0-0.27","96276","492426","highRank"
"117","3","29","false","risky","safe","risky","70","2241","bandit","bandit-task","126","705855","0.0-11.0-0.28","96276","492426","highRank"
"118","3","30","false","worst","context","context","58","717","bandit","bandit-task","127","710022","0.0-11.0-0.29","96276","492426","highRank"
"119","3","31","false","worst","context","context","13","785","bandit","bandit-task","128","713534","0.0-11.0-0.30","96276","492426","highRank"
"120","3","32","false","context","worst","context","100","707","bandit","bandit-task","129","717806","0.0-11.0-0.31","96276","492426","highRank"
"121","3","33","true","","","context","100","4617","bandit","bandit-task","130","725989","0.0-11.0-0.32","96276","492426","highRank"
"122","3","34","false","safe","risky","safe","50","2647","bandit","bandit-task","131","732129","0.0-11.0-0.33","96276","492426","highRank"
"123","3","35","true","","","risky","70","608","bandit","bandit-task","132","735831","0.0-11.0-0.34","96276","492426","highRank"
"124","3","36","false","safe","risky","risky","30","1602","bandit","bandit-task","133","743645","0.0-11.0-0.35","96276","492426","highRank"
"125","3","37","false","worst","context","context","100","1080","bandit","bandit-task","134","749388","0.0-11.0-0.36","96276","492426","highRank"
"126","3","38","false","risky","safe","risky","30","838","bandit","bandit-task","135","752826","0.0-11.0-0.37","96276","492426","highRank"
"127","3","39","false","context","worst","context","39","779","bandit","bandit-task","136","756140","0.0-11.0-0.38","96276","492426","highRank"
"128","3","40","false","risky","safe","safe","50","823","bandit","bandit-task","137","759606","0.0-11.0-0.39","96276","492426","highRank"
"129","3","41","true","","","safe","50","539","bandit","bandit-task","138","763341","0.0-11.0-0.40","96276","492426","highRank"
"130","3","42","true","","","safe","50","676","bandit","bandit-task","139","766681","0.0-11.0-0.41","96276","492426","highRank"
"131","3","43","false","context","worst","context","1","1375","bandit","bandit-task","140","771428","0.0-11.0-0.42","96276","492426","highRank"
"132","3","44","false","context","worst","context","2","847","bandit","bandit-task","141","775165","0.0-11.0-0.43","96276","492426","highRank"
"133","4","1","true","","","risky","70","1492","bandit","bandit-task","143","854014","0.0-13.0-0.0","96276","492426","highRank"
"134","4","2","false","worst","context","context","100","813","bandit","bandit-task","144","857749","0.0-13.0-0.1","96276","492426","highRank"
"135","4","3","false","context","worst","context","13","720","bandit","bandit-task","145","863596","0.0-13.0-0.2","96276","492426","highRank"
"136","4","4","false","worst","context","context","62","1241","bandit","bandit-task","146","867604","0.0-13.0-0.3","96276","492426","highRank"
"137","4","5","false","worst","context","context","39","768","bandit","bandit-task","147","872306","0.0-13.0-0.4","96276","492426","highRank"
"138","4","6","true","","","worst","0","663","bandit","bandit-task","148","876090","0.0-13.0-0.5","96276","492426","highRank"
"139","4","7","false","context","worst","context","100","707","bandit","bandit-task","149","880041","0.0-13.0-0.6","96276","492426","highRank"
"140","4","8","false","worst","context","context","11","687","bandit","bandit-task","150","885021","0.0-13.0-0.7","96276","492426","highRank"
"141","4","9","true","","","worst","0","2213","bandit","bandit-task","151","889802","0.0-13.0-0.8","96276","492426","highRank"
"142","4","10","false","safe","risky","risky","70","1114","bandit","bandit-task","152","895062","0.0-13.0-0.9","96276","492426","highRank"
"143","4","11","false","worst","context","context","19","1066","bandit","bandit-task","153","899779","0.0-13.0-0.10","96276","492426","highRank"
"144","4","12","false","context","worst","context","100","4809","bandit","bandit-task","154","907328","0.0-13.0-0.11","96276","492426","highRank"
"145","4","13","false","safe","risky","risky","70","699","bandit","bandit-task","155","911442","0.0-13.0-0.12","96276","492426","highRank"
"146","4","14","true","","","context","56","628","bandit","bandit-task","156","915566","0.0-13.0-0.13","96276","492426","highRank"
"147","4","15","false","context","worst","context","42","736","bandit","bandit-task","157","919667","0.0-13.0-0.14","96276","492426","highRank"
"148","4","16","false","context","worst","context","2","729","bandit","bandit-task","158","923685","0.0-13.0-0.15","96276","492426","highRank"
"149","4","17","false","worst","context","context","37","717","bandit","bandit-task","159","928074","0.0-13.0-0.16","96276","492426","highRank"
"150","4","18","false","safe","risky","safe","50","1188","bandit","bandit-task","160","932773","0.0-13.0-0.17","96276","492426","highRank"
"151","4","19","false","risky","safe","safe","50","849","bandit","bandit-task","161","937159","0.0-13.0-0.18","96276","492426","highRank"
"152","4","20","false","risky","safe","risky","70","1213","bandit","bandit-task","162","941277","0.0-13.0-0.19","96276","492426","highRank"
"153","4","21","false","context","worst","context","100","999","bandit","bandit-task","163","945047","0.0-13.0-0.20","96276","492426","highRank"
"154","4","22","false","context","worst","context","100","945","bandit","bandit-task","164","949105","0.0-13.0-0.21","96276","492426","highRank"
"155","4","23","false","safe","risky","risky","30","695","bandit","bandit-task","165","953330","0.0-13.0-0.22","96276","492426","highRank"
"156","4","24","false","context","worst","context","7","643","bandit","bandit-task","166","956779","0.0-13.0-0.23","96276","492426","highRank"
"157","4","25","false","context","worst","context","100","620","bandit","bandit-task","167","960969","0.0-13.0-0.24","96276","492426","highRank"
"158","4","26","false","risky","safe","risky","30","769","bandit","bandit-task","168","964371","0.0-13.0-0.25","96276","492426","highRank"
"159","4","27","false","worst","context","context","41","588","bandit","bandit-task","169","967524","0.0-13.0-0.26","96276","492426","highRank"
"160","4","28","false","context","worst","context","100","650","bandit","bandit-task","170","971443","0.0-13.0-0.27","96276","492426","highRank"
"161","4","29","false","safe","risky","risky","30","896","bandit","bandit-task","171","974852","0.0-13.0-0.28","96276","492426","highRank"
"162","4","30","false","context","worst","context","65","12705","bandit","bandit-task","172","991677","0.0-13.0-0.29","96276","492426","highRank"
"163","4","31","false","worst","context","context","100","36311","bandit","bandit-task","173","1030727","0.0-13.0-0.30","96276","492426","highRank"
"164","4","32","false","context","worst","context","10","640","bandit","bandit-task","174","1034164","0.0-13.0-0.31","96276","492426","highRank"
"165","4","33","true","","","context","20","522","bandit","bandit-task","175","1037270","0.0-13.0-0.32","96276","492426","highRank"
"166","4","34","false","risky","safe","safe","50","682","bandit","bandit-task","176","1040789","0.0-13.0-0.33","96276","492426","highRank"
"167","4","35","true","","","risky","70","586","bandit","bandit-task","177","1044206","0.0-13.0-0.34","96276","492426","highRank"
"168","4","36","false","safe","risky","safe","50","665","bandit","bandit-task","178","1047695","0.0-13.0-0.35","96276","492426","highRank"
"169","4","37","false","context","worst","context","100","2168","bandit","bandit-task","179","1052843","0.0-13.0-0.36","96276","492426","highRank"
"170","4","38","false","risky","safe","risky","30","656","bandit","bandit-task","180","1056091","0.0-13.0-0.37","96276","492426","highRank"
"171","4","39","false","context","worst","worst","0","585","bandit","bandit-task","181","1059178","0.0-13.0-0.38","96276","492426","highRank"
"172","4","40","false","safe","risky","safe","50","587","bandit","bandit-task","182","1062207","0.0-13.0-0.39","96276","492426","highRank"
"173","4","41","true","","","safe","50","550","bandit","bandit-task","183","1065208","0.0-13.0-0.40","96276","492426","highRank"
"174","4","42","true","","","safe","50","741","bandit","bandit-task","184","1068420","0.0-13.0-0.41","96276","492426","highRank"
"175","4","43","false","worst","context","context","62","2282","bandit","bandit-task","185","1076888","0.0-13.0-0.42","96276","492426","highRank"
"176","4","44","false","worst","context","context","6","1154","bandit","bandit-task","186","1080941","0.0-13.0-0.43","96276","492426","highRank"
"177","5","1","true","","","risky","70","767","bandit","bandit-task","188","1086226","0.0-15.0-0.0","96276","492426","highRank"
"178","5","2","false","worst","context","context","44","941","bandit","bandit-task","189","1089660","0.0-15.0-0.1","96276","492426","highRank"
"179","5","3","false","worst","context","context","3","1094","bandit","bandit-task","190","1093583","0.0-15.0-0.2","96276","492426","highRank"
"180","5","4","false","worst","context","context","100","997","bandit","bandit-task","191","1097597","0.0-15.0-0.3","96276","492426","highRank"
"181","5","5","false","worst","context","context","100","656","bandit","bandit-task","192","1101265","0.0-15.0-0.4","96276","492426","highRank"
"182","5","6","true","","","worst","0","711","bandit","bandit-task","193","1105848","0.0-15.0-0.5","96276","492426","highRank"
"183","5","7","false","worst","context","context","58","1187","bandit","bandit-task","194","1109781","0.0-15.0-0.6","96276","492426","highRank"
"184","5","8","false","context","worst","context","100","728","bandit","bandit-task","195","1113478","0.0-15.0-0.7","96276","492426","highRank"
"185","5","9","true","","","worst","0","695","bandit","bandit-task","196","1116671","0.0-15.0-0.8","96276","492426","highRank"
"186","5","10","false","safe","risky","risky","70","721","bandit","bandit-task","197","1119992","0.0-15.0-0.9","96276","492426","highRank"
"187","5","11","false","worst","context","worst","0","741","bandit","bandit-task","198","1123537","0.0-15.0-0.10","96276","492426","highRank"
"188","5","12","false","worst","context","context","12","600","bandit","bandit-task","199","1126642","0.0-15.0-0.11","96276","492426","highRank"
"189","5","13","false","risky","safe","safe","50","758","bandit","bandit-task","200","1130205","0.0-15.0-0.12","96276","492426","highRank"
"190","5","14","true","","","context","100","593","bandit","bandit-task","201","1133469","0.0-15.0-0.13","96276","492426","highRank"
"191","5","15","false","context","worst","context","100","977","bandit","bandit-task","202","1136927","0.0-15.0-0.14","96276","492426","highRank"
"192","5","16","false","context","worst","context","43","652","bandit","bandit-task","203","1139961","0.0-15.0-0.15","96276","492426","highRank"
"193","5","17","false","context","worst","context","8","551","bandit","bandit-task","204","1143016","0.0-15.0-0.16","96276","492426","highRank"
"194","5","18","false","safe","risky","safe","50","763","bandit","bandit-task","205","1146444","0.0-15.0-0.17","96276","492426","highRank"
"195","5","19","false","safe","risky","safe","50","524","bandit","bandit-task","206","1149456","0.0-15.0-0.18","96276","492426","highRank"
"196","5","20","false","risky","safe","risky","30","790","bandit","bandit-task","207","1152935","0.0-15.0-0.19","96276","492426","highRank"
"197","5","21","false","context","worst","context","9","1056","bandit","bandit-task","208","1156729","0.0-15.0-0.20","96276","492426","highRank"
"198","5","22","false","worst","context","context","16","694","bandit","bandit-task","209","1159903","0.0-15.0-0.21","96276","492426","highRank"
"199","5","23","false","risky","safe","safe","50","849","bandit","bandit-task","210","1163563","0.0-15.0-0.22","96276","492426","highRank"
"200","5","24","false","worst","context","context","100","577","bandit","bandit-task","211","1166808","0.0-15.0-0.23","96276","492426","highRank"
"201","5","25","false","context","worst","context","17","617","bandit","bandit-task","212","1170225","0.0-15.0-0.24","96276","492426","highRank"
"202","5","26","false","safe","risky","risky","30","853","bandit","bandit-task","213","1173572","0.0-15.0-0.25","96276","492426","highRank"
"203","5","27","false","context","worst","context","4","604","bandit","bandit-task","214","1176767","0.0-15.0-0.26","96276","492426","highRank"
"204","5","28","false","worst","context","context","35","602","bandit","bandit-task","215","1179800","0.0-15.0-0.27","96276","492426","highRank"
"205","5","29","false","risky","safe","risky","30","741","bandit","bandit-task","216","1182967","0.0-15.0-0.28","96276","492426","highRank"
"206","5","30","false","context","worst","context","14","725","bandit","bandit-task","217","1186152","0.0-15.0-0.29","96276","492426","highRank"
"207","5","31","false","worst","context","context","100","584","bandit","bandit-task","218","1189362","0.0-15.0-0.30","96276","492426","highRank"
"208","5","32","false","context","worst","context","36","637","bandit","bandit-task","219","1192414","0.0-15.0-0.31","96276","492426","highRank"
"209","5","33","true","","","context","60","550","bandit","bandit-task","220","1195490","0.0-15.0-0.32","96276","492426","highRank"
"210","5","34","false","safe","risky","safe","50","692","bandit","bandit-task","221","1198970","0.0-15.0-0.33","96276","492426","highRank"
"211","5","35","true","","","risky","30","574","bandit","bandit-task","222","1202278","0.0-15.0-0.34","96276","492426","highRank"
"212","5","36","false","safe","risky","safe","50","684","bandit","bandit-task","223","1205560","0.0-15.0-0.35","96276","492426","highRank"
"213","5","37","false","context","worst","context","59","951","bandit","bandit-task","224","1209108","0.0-15.0-0.36","96276","492426","highRank"
"214","5","38","false","risky","safe","safe","50","674","bandit","bandit-task","225","1212205","0.0-15.0-0.37","96276","492426","highRank"
"215","5","39","false","context","worst","context","100","618","bandit","bandit-task","226","1215252","0.0-15.0-0.38","96276","492426","highRank"
"216","5","40","false","risky","safe","safe","50","732","bandit","bandit-task","227","1218465","0.0-15.0-0.39","96276","492426","highRank"
"217","5","41","true","","","safe","50","590","bandit","bandit-task","228","1221491","0.0-15.0-0.40","96276","492426","highRank"
"218","5","42","true","","","safe","50","602","bandit","bandit-task","229","1224574","0.0-15.0-0.41","96276","492426","highRank"
"219","5","43","false","context","worst","context","63","654","bandit","bandit-task","230","1227620","0.0-15.0-0.42","96276","492426","highRank"
"220","5","44","false","worst","context","context","5","809","bandit","bandit-task","231","1230907","0.0-15.0-0.43","96276","492426","highRank"
