"banditTrial","block","trialInBlock","singleOption","leftOption","rightOption","choice","feedback","rt","task","trial_type","trial_index","time_elapsed","internal_node_id","participant","turkCode","condition"
"1","1","1","false","context","worst","context","37","4657","bandit","bandit-task","8","154972","0.0-7.0-0.0","89303","523781","lowRank"
"2","1","2","false","safe","risky","safe","50","3426","bandit","bandit-task","9","161690","0.0-7.0-0.1","89303","523781","lowRank"
"3","1","3","false","worst","context","context","59","1736","bandit","bandit-task","10","166381","0.0-7.0-0.2","89303","523781","lowRank"
"4","1","4","true","","","worst","0","1591","bandit","bandit-task","11","171612","0.0-7.0-0.3","89303","523781","lowRank"
"5","1","5","false","context","worst","context","1","1371","bandit","bandit-task","12","175960","0.0-7.0-0.4","89303","523781","lowRank"
"6","1","6","true","","","context","1","1305","bandit","bandit-task","13","180023","0.0-7.0-0.5","89303","523781","lowRank"
"7","1","7","false","worst","context","worst","0","1329","bandit","bandit-task","14","184459","0.0-7.0-0.6","89303","523781","lowRank"
"8","1","8","false","worst","context","context","95","1145","bandit","bandit-task","15","188515","0.0-7.0-0.7","89303","523781","lowRank"
"9","1","9","false","worst","context","context","1","1131","bandit","bandit-task","16","192485","0.0-7.0-0.8","89303","523781","lowRank"
"10","1","10","false","worst","context","context","60","1583","bandit","bandit-task","17","196883","0.0-7.0-0.9","89303","523781","lowRank"
"11","1","11","false","worst","context","worst","0","919","bandit","bandit-task","18","200665","0.0-7.0-0.10","89303","523781","lowRank"
"12","1","12","false","worst","context","context","61","894","bandit","bandit-task","19","204466","0.0-7.0-0.11","89303","523781","lowRank"
"13","1","13","false","worst","context","context","43","946","bandit","bandit-task","20","208397","0.0-7.0-0.12","89303","523781","lowRank"
"14","1","14","false","worst","context","context","92","1006","bandit","bandit-task","21","212285","0.0-7.0-0.13","89303","523781","lowRank"
"15","1","15","false","risky","safe","safe","50","1983","bandit","bandit-task","22","216969","0.0-7.0-0.14","89303","523781","lowRank"
"16","1","16","true","","","safe","50","990","bandit","bandit-task","23","220836","0.0-7.0-0.15","89303","523781","lowRank"
"17","1","17","false","context","worst","context","1","1523","bandit","bandit-task","24","225336","0.0-7.0-0.16","89303","523781","lowRank"
"18","1","18","false","worst","context","context","1","967","bandit","bandit-task","25","228872","0.0-7.0-0.17","89303","523781","lowRank"
"19","1","19","true","","","worst","0","1000","bandit","bandit-task","26","232680","0.0-7.0-0.18","89303","523781","lowRank"
"20","1","20","true","","","risky","30","1131","bandit","bandit-task","27","236735","0.0-7.0-0.19","89303","523781","lowRank"
"21","1","21","true","","","safe","50","1026","bandit","bandit-task","28","240545","0.0-7.0-0.20","89303","523781","lowRank"
"22","1","22","false","risky","safe","safe","50","1303","bandit","bandit-task","29","244824","0.0-7.0-0.21","89303","523781","lowRank"
"23","1","23","false","risky","safe","safe","50","921","bandit","bandit-task","30","248561","0.0-7.0-0.22","89303","523781","lowRank"
"24","1","24","false","safe","risky","safe","50","1422","bandit","bandit-task","31","252677","0.0-7.0-0.23","89303","523781","lowRank"
"25","1","25","false","worst","context","context","1","1011","bandit","bandit-task","32","256242","0.0-7.0-0.24","89303","523781","lowRank"
"26","1","26","false","risky","safe","safe","50","977","bandit","bandit-task","33","259874","0.0-7.0-0.25","89303","523781","lowRank"
"27","1","27","false","worst","context","context","99","1028","bandit","bandit-task","34","263560","0.0-7.0-0.26","89303","523781","lowRank"
"28","1","28","false","worst","context","context","81","916","bandit","bandit-task","35","267242","0.0-7.0-0.27","89303","523781","lowRank"
"29","1","29","false","safe","risky","safe","50","2611","bandit","bandit-task","36","272997","0.0-7.0-0.28","89303","523781","lowRank"
"30","1","30","false","risky","safe","safe","50","1135","bandit","bandit-task","37","276855","0.0-7.0-0.29","89303","523781","lowRank"
"31","1","31","false","worst","context","worst","0","1642","bandit","bandit-task","38","281136","0.0-7.0-0.30","89303","523781","lowRank"
"32","1","32","false","context","worst","context","1","1241","bandit","bandit-task","39","284967","0.0-7.0-0.31","89303","523781","lowRank"
"33","1","33","false","worst","context","context","56","808","bandit","bandit-task","40","288730","0.0-7.0-0.32","89303","523781","lowRank"
"34","1","34","false","worst","context","context","93","823","bandit","bandit-task","41","292413","0.0-7.0-0.33","89303","523781","lowRank"
"35","1","35","true","","","risky","70","803","bandit","bandit-task","42","296147","0.0-7.0-0.34","89303","523781","lowRank"
"36","1","36","false","context","worst","context","55","1269","bandit","bandit-task","43","300042","0.0-7.0-0.35","89303","523781","lowRank"
"37","1","37","false","worst","context","context","1","890","bandit","bandit-task","44","303893","0.0-7.0-0.36","89303","523781","lowRank"
"38","1","38","false","context","worst","context","80","1064","bandit","bandit-task","45","308240","0.0-7.0-0.37","89303","523781","lowRank"
"39","1","39","false","safe","risky","safe","50","920","bandit","bandit-task","46","312033","0.0-7.0-0.38","89303","523781","lowRank"
"40","1","40","false","safe","risky","risky","70","1335","bandit","bandit-task","47","316052","0.0-7.0-0.39","89303","523781","lowRank"
"41","1","41","false","context","worst","context","100","1156","bandit","bandit-task","48","320018","0.0-7.0-0.40","89303","523781","lowRank"
"42","1","42","true","","","context","89","919","bandit","bandit-task","49","323797","0.0-7.0-0.41","89303","523781","lowRank"
"43","1","43","false","risky","safe","risky","30","1575","bandit","bandit-task","50","327969","0.0-7.0-0.42","89303","523781","lowRank"
"44","1","44","false","safe","risky","safe","50","1050","bandit","bandit-task","51","331763","0.0-7.0-0.43","89303","523781","lowRank"
"45","2","1","false","context","worst","context","65","1330","bandit","bandit-task","53","346622","0.0-9.0-0.0","89303","523781","lowRank"
"46","2","2","false","risky","safe","safe","50","989","bandit","bandit-task","54","350182","0.0-9.0-0.1","89303","523781","lowRank"
"47","2","3","false","context","worst","context","97","1007","bandit","bandit-task","55","354133","0.0-9.0-0.2","89303","523781","lowRank"
"48","2","4","true","","","worst","0","920","bandit","bandit-task","56","357831","0.0-9.0-0.3","89303","523781","lowRank"
"49","2","5","false","context","worst","worst","0","1014","bandit","bandit-task","57","361449","0.0-9.0-0.4","89303","523781","lowRank"
"50","2","6","true","","","context","88","802","bandit","bandit-task","58","365125","0.0-9.0-0.5","89303","523781","lowRank"
"51","2","7","false","worst","context","context","41","880","bandit","bandit-task","59","368581","0.0-9.0-0.6","89303","523781","lowRank"
"52","2","8","false","context","worst","context","39","1101","bandit","bandit-task","60","372233","0.0-9.0-0.7","89303","523781","lowRank"
"53","2","9","false","worst","context","worst","0","1037","bandit","bandit-task","61","375851","0.0-9.0-0.8","89303","523781","lowRank"
"54","2","10","false","context","worst","context","1","1224","bandit","bandit-task","62","379679","0.0-9.0-0.9","89303","523781","lowRank"
"55","2","11","false","worst","context","context","1","1226","bandit","bandit-task","63","383449","0.0-9.0-0.10","89303","523781","lowRank"
"56","2","12","false","context","worst","worst","0","1043","bandit","bandit-task","64","386993","0.0-9.0-0.11","89303","523781","lowRank"
"57","2","13","false","context","worst","context","44","955","bandit","bandit-task","65","390485","0.0-9.0-0.12","89303","523781","lowRank"
"58","2","14","false","context","worst","context","96","982","bandit","bandit-task","66","394145","0.0-9.0-0.13","89303","523781","lowRank"
"59","2","15","false","risky","safe","safe","50","1490","bandit","bandit-task","67","398184","0.0-9.0-0.14","89303","523781","lowRank"
"60","2","16","true","","","safe","50","823","bandit","bandit-task","68","401809","0.0-9.0-0.15","89303","523781","lowRank"
"61","2","17","false","context","worst","context","1","1179","bandit","bandit-task","69","405614","0.0-9.0-0.16","89303","523781","lowRank"
"62","2","18","false","worst","context","context","83","802","bandit","bandit-task","70","408940","0.0-9.0-0.17","89303","523781","lowRank"
"63","2","19","true","","","worst","0","824","bandit","bandit-task","71","412440","0.0-9.0-0.18","89303","523781","lowRank"
"64","2","20","true","","","risky","70","940","bandit","bandit-task","72","416064","0.0-9.0-0.19","89303","523781","lowRank"
"65","2","21","true","","","safe","50","840","bandit","bandit-task","73","419615","0.0-9.0-0.20","89303","523781","lowRank"
"66","2","22","false","risky","safe","safe","50","1131","bandit","bandit-task","74","423581","0.0-9.0-0.21","89303","523781","lowRank"
"67","2","23","false","safe","risky","safe","50","1253","bandit","bandit-task","75","427592","0.0-9.0-0.22","89303","523781","lowRank"
"68","2","24","false","safe","risky","risky","30","1379","bandit","bandit-task","76","431617","0.0-9.0-0.23","89303","523781","lowRank"
"69","2","25","false","worst","context","context","40","910","bandit","bandit-task","77","435050","0.0-9.0-0.24","89303","523781","lowRank"
"70","2","26","false","risky","safe","risky","30","996","bandit","bandit-task","78","438637","0.0-9.0-0.25","89303","523781","lowRank"
"71","2","27","false","context","worst","context","98","1202","bandit","bandit-task","79","442305","0.0-9.0-0.26","89303","523781","lowRank"
"72","2","28","false","context","worst","context","84","1182","bandit","bandit-task","80","446080","0.0-9.0-0.27","89303","523781","lowRank"
"73","2","29","false","safe","risky","safe","50","1253","bandit","bandit-task","81","449872","0.0-9.0-0.28","89303","523781","lowRank"
"74","2","30","false","safe","risky","risky","30","1094","bandit","bandit-task","82","453591","0.0-9.0-0.29","89303","523781","lowRank"
"75","2","31","false","context","worst","context","1","938","bandit","bandit-task","83","457062","0.0-9.0-0.30","89303","523781","lowRank"
"76","2","32","false","context","worst","worst","0","915","bandit","bandit-task","84","460705","0.0-9.0-0.31","89303","523781","lowRank"
"77","2","33","false","context","worst","context","86","940","bandit","bandit-task","85","464140","0.0-9.0-0.32","89303","523781","lowRank"
"78","2","34","false","worst","context","context","36","981","bandit","bandit-task","86","467675","0.0-9.0-0.33","89303","523781","lowRank"
"79","2","35","true","","","risky","70","750","bandit","bandit-task","87","471168","0.0-9.0-0.34","89303","523781","lowRank"
"80","2","36","false","worst","context","context","63","1171","bandit","bandit-task","88","474878","0.0-9.0-0.35","89303","523781","lowRank"
"81","2","37","false","worst","context","context","1","866","bandit","bandit-task","89","478787","0.0-9.0-0.36","89303","523781","lowRank"
"82","2","38","false","worst","context","context","1","901","bandit","bandit-task","90","482358","0.0-9.0-0.37","89303","523781","lowRank"
"83","2","39","false","safe","risky","safe","50","1195","bandit","bandit-task","91","486040","0.0-9.0-0.38","89303","523781","lowRank"
"84","2","40","false","risky","safe","safe","50","873","bandit","bandit-task","92","489678","0.0-9.0-0.39","89303","523781","lowRank"
"85","2","41","false","context","worst","context","1","1010","bandit","bandit-task","93","493206","0.0-9.0-0.40","89303","523781","lowRank"
"86","2","42","true","","","context","94","779","bandit","bandit-task","94","496741","0.0-9.0-0.41","89303","523781","lowRank"
"87","2","43","false","safe","risky","safe","50","1108","bandit","bandit-task","95","500401","0.0-9.0-0.42","89303","523781","lowRank"
"88","2","44","false","risky","safe","safe","50","809","bandit","bandit-task","96","503782","0.0-9.0-0.43","89303","523781","lowRank"
"89","3","1","false","context","worst","context","1","1054","bandit","bandit-task","98","510293","0.0-11.0-0.0","89303","523781","lowRank"
"90","3","2","false","safe","risky","safe","50","1028","bandit","bandit-task","99","513850","0.0-11.0-0.1","89303","523781","lowRank"
"91","3","3","false","context","worst","context","64","874","bandit","bandit-task","100","517605","0.0-11.0-0.2","89303","523781","lowRank"
"92","3","4","true","","","worst","0","780","bandit","bandit-task","101","521243","0.0-11.0-0.3","89303","523781","lowRank"
"93","3","5","false","worst","context","context","35","967","bandit","bandit-task","102","524734","0.0-11.0-0.4","89303","523781","lowRank"
"94","3","6","true","","","context","38","743","bandit","bandit-task","103","528183","0.0-11.0-0.5","89303","523781","lowRank"
"95","3","7","false","context","worst","context","85","1150","bandit","bandit-task","104","531982","0.0-11.0-0.6","89303","523781","lowRank"
"96","3","8","false","worst","context","context","92","793","bandit","bandit-task","105","535588","0.0-11.0-0.7","89303","523781","lowRank"
"97","3","9","false","worst","context","context","1","969","bandit","bandit-task","106","539016","0.0-11.0-0.8","89303","523781","lowRank"
"98","3","10","false","worst","context","context","45","996","bandit","bandit-task","107","542551","0.0-11.0-0.9","89303","523781","lowRank"
"99","3","11","false","worst","context","context","83","871","bandit","bandit-task","108","546822","0.0-11.0-0.10","89303","523781","lowRank"
"100","3","12","false","worst","context","context","40","845","bandit","bandit-task","109","550270","0.0-11.0-0.11","89303","523781","lowRank"
"101","3","13","false","worst","context","context","1","823","bandit","bandit-task","110","553878","0.0-11.0-0.12","89303","523781","lowRank"
"102","3","14","false","worst","context","context","57","816","bandit","bandit-task","111","557495","0.0-11.0-0.13","89303","523781","lowRank"
"103","3","15","false","risky","safe","safe","50","935","bandit","bandit-task","112","560891","0.0-11.0-0.14","89303","523781","lowRank"
"104","3","16","true","","","safe","50","787","bandit","bandit-task","113","564951","0.0-11.0-0.15","89303","523781","lowRank"
"105","3","17","false","worst","context","context","1","813","bandit","bandit-task","114","568232","0.0-11.0-0.16","89303","523781","lowRank"
"106","3","18","false","context","worst","context","58","1078","bandit","bandit-task","115","571956","0.0-11.0-0.17","89303","523781","lowRank"
"107","3","19","true","","","worst","0","792","bandit","bandit-task","116","575236","0.0-11.0-0.18","89303","523781","lowRank"
"108","3","20","true","","","risky","30","721","bandit","bandit-task","117","578574","0.0-11.0-0.19","89303","523781","lowRank"
"109","3","21","true","","","safe","50","829","bandit","bandit-task","118","582204","0.0-11.0-0.20","89303","523781","lowRank"
"110","3","22","false","risky","safe","safe","50","852","bandit","bandit-task","119","585782","0.0-11.0-0.21","89303","523781","lowRank"
"111","3","23","false","risky","safe","safe","50","843","bandit","bandit-task","120","589260","0.0-11.0-0.22","89303","523781","lowRank"
"112","3","24","false","safe","risky","safe","50","1047","bandit","bandit-task","121","593312","0.0-11.0-0.23","89303","523781","lowRank"
"113","3","25","false","context","worst","context","87","1427","bandit","bandit-task","122","597576","0.0-11.0-0.24","89303","523781","lowRank"
"114","3","26","false","safe","risky","safe","50","1354","bandit","bandit-task","123","601621","0.0-11.0-0.25","89303","523781","lowRank"
"115","3","27","false","context","worst","context","82","1312","bandit","bandit-task","124","605637","0.0-11.0-0.26","89303","523781","lowRank"
"116","3","28","false","worst","context","context","1","773","bandit","bandit-task","125","609092","0.0-11.0-0.27","89303","523781","lowRank"
"117","3","29","false","risky","safe","safe","50","1448","bandit","bandit-task","126","613509","0.0-11.0-0.28","89303","523781","lowRank"
"118","3","30","false","risky","safe","safe","50","1062","bandit","bandit-task","127","617678","0.0-11.0-0.29","89303","523781","lowRank"
"119","3","31","false","worst","context","context","42","909","bandit","bandit-task","128","621848","0.0-11.0-0.30","89303","523781","lowRank"
"120","3","32","false","worst","context","context","1","858","bandit","bandit-task","129","625937","0.0-11.0-0.31","89303","523781","lowRank"
"121","3","33","false","worst","context","context","1","872","bandit","bandit-task","130","629907","0.0-11.0-0.32","89303","523781","lowRank"
"122","3","34","false","context","worst","context","44","1143","bandit","bandit-task","131","634105","0.0-11.0-0.33","89303","523781","lowRank"
"123","3","35","true","","","risky","70","832","bandit","bandit-task","132","637758","0.0-11.0-0.34","89303","523781","lowRank"
"124","3","36","false","context","worst","context","1","1046","bandit","bandit-task","133","641614","0.0-11.0-0.35","89303","523781","lowRank"
"125","3","37","false","context","worst","context","62","1096","bandit","bandit-task","134","645266","0.0-11.0-0.36","89303","523781","lowRank"
"126","3","38","false","worst","context","context","94","752","bandit","bandit-task","135","648698","0.0-11.0-0.37","89303","523781","lowRank"
"127","3","39","false","safe","risky","safe","50","881","bandit","bandit-task","136","652232","0.0-11.0-0.38","89303","523781","lowRank"
"128","3","40","false","risky","safe","safe","50","751","bandit","bandit-task","137","655476","0.0-11.0-0.39","89303","523781","lowRank"
"129","3","41","false","context","worst","context","1","943","bandit","bandit-task","138","659069","0.0-11.0-0.40","89303","523781","lowRank"
"130","3","42","true","","","context","90","779","bandit","bandit-task","139","662537","0.0-11.0-0.41","89303","523781","lowRank"
"131","3","43","false","safe","risky","safe","50","866","bandit","bandit-task","140","666270","0.0-11.0-0.42","89303","523781","lowRank"
"132","3","44","false","risky","safe","safe","50","819","bandit","bandit-task","141","669928","0.0-11.0-0.43","89303","523781","lowRank"
"133","4","1","false","worst","context","context","91","1110","bandit","bandit-task","143","677040","0.0-13.0-0.0","89303","523781","lowRank"
"134","4","2","false","safe","risky","safe","50","857","bandit","bandit-task","144","680327","0.0-13.0-0.1","89303","523781","lowRank"
"135","4","3","false","worst","context","context","1","875","bandit","bandit-task","145","683746","0.0-13.0-0.2","89303","523781","lowRank"
"136","4","4","true","","","worst","0","675","bandit","bandit-task","146","686894","0.0-13.0-0.3","89303","523781","lowRank"
"137","4","5","false","worst","context","context","60","839","bandit","bandit-task","147","690277","0.0-13.0-0.4","89303","523781","lowRank"
"138","4","6","true","","","context","59","705","bandit","bandit-task","148","693797","0.0-13.0-0.5","89303","523781","lowRank"
"139","4","7","false","context","worst","context","100","906","bandit","bandit-task","149","697404","0.0-13.0-0.6","89303","523781","lowRank"
"140","4","8","false","context","worst","context","81","895","bandit","bandit-task","150","700939","0.0-13.0-0.7","89303","523781","lowRank"
"141","4","9","false","worst","context","context","87","706","bandit","bandit-task","151","704218","0.0-13.0-0.8","89303","523781","lowRank"
"142","4","10","false","worst","context","context","1","858","bandit","bandit-task","152","709350","0.0-13.0-0.9","89303","523781","lowRank"
"143","4","11","false","worst","context","context","1","917","bandit","bandit-task","153","712767","0.0-13.0-0.10","89303","523781","lowRank"
"144","4","12","false","context","worst","context","37","942","bandit","bandit-task","154","716523","0.0-13.0-0.11","89303","523781","lowRank"
"145","4","13","false","context","worst","context","39","818","bandit","bandit-task","155","720107","0.0-13.0-0.12","89303","523781","lowRank"
"146","4","14","false","context","worst","context","1","801","bandit","bandit-task","156","723504","0.0-13.0-0.13","89303","523781","lowRank"
"147","4","15","false","safe","risky","safe","50","777","bandit","bandit-task","157","727278","0.0-13.0-0.14","89303","523781","lowRank"
"148","4","16","true","","","safe","50","779","bandit","bandit-task","158","730792","0.0-13.0-0.15","89303","523781","lowRank"
"149","4","17","false","context","worst","context","38","937","bandit","bandit-task","159","734451","0.0-13.0-0.16","89303","523781","lowRank"
"150","4","18","false","context","worst","context","1","864","bandit","bandit-task","160","738101","0.0-13.0-0.17","89303","523781","lowRank"
"151","4","19","true","","","worst","0","697","bandit","bandit-task","161","741482","0.0-13.0-0.18","89303","523781","lowRank"
"152","4","20","true","","","risky","30","719","bandit","bandit-task","162","745113","0.0-13.0-0.19","89303","523781","lowRank"
"153","4","21","true","","","safe","50","899","bandit","bandit-task","163","748581","0.0-13.0-0.20","89303","523781","lowRank"
"154","4","22","false","risky","safe","safe","50","893","bandit","bandit-task","164","752000","0.0-13.0-0.21","89303","523781","lowRank"
"155","4","23","false","risky","safe","risky","70","1155","bandit","bandit-task","165","755898","0.0-13.0-0.22","89303","523781","lowRank"
"156","4","24","false","risky","safe","safe","50","953","bandit","bandit-task","166","759360","0.0-13.0-0.23","89303","523781","lowRank"
"157","4","25","false","context","worst","worst","0","1149","bandit","bandit-task","167","763012","0.0-13.0-0.24","89303","523781","lowRank"
"158","4","26","false","safe","risky","safe","50","871","bandit","bandit-task","168","766342","0.0-13.0-0.25","89303","523781","lowRank"
"159","4","27","false","worst","context","context","1","836","bandit","bandit-task","169","769696","0.0-13.0-0.26","89303","523781","lowRank"
"160","4","28","false","context","worst","context","45","934","bandit","bandit-task","170","773114","0.0-13.0-0.27","89303","523781","lowRank"
"161","4","29","false","risky","safe","safe","50","800","bandit","bandit-task","171","776385","0.0-13.0-0.28","89303","523781","lowRank"
"162","4","30","false","safe","risky","safe","50","843","bandit","bandit-task","172","779999","0.0-13.0-0.29","89303","523781","lowRank"
"163","4","31","false","worst","context","context","1","867","bandit","bandit-task","173","783565","0.0-13.0-0.30","89303","523781","lowRank"
"164","4","32","false","worst","context","worst","0","818","bandit","bandit-task","174","787003","0.0-13.0-0.31","89303","523781","lowRank"
"165","4","33","false","context","worst","worst","0","778","bandit","bandit-task","175","790239","0.0-13.0-0.32","89303","523781","lowRank"
"166","4","34","false","worst","context","context","84","939","bandit","bandit-task","176","793767","0.0-13.0-0.33","89303","523781","lowRank"
"167","4","35","true","","","risky","70","806","bandit","bandit-task","177","797476","0.0-13.0-0.34","89303","523781","lowRank"
"168","4","36","false","worst","context","context","1","870","bandit","bandit-task","178","800946","0.0-13.0-0.35","89303","523781","lowRank"
"169","4","37","false","worst","context","context","80","916","bandit","bandit-task","179","804341","0.0-13.0-0.36","89303","523781","lowRank"
"170","4","38","false","context","worst","context","55","1201","bandit","bandit-task","180","808116","0.0-13.0-0.37","89303","523781","lowRank"
"171","4","39","false","risky","safe","safe","50","741","bandit","bandit-task","181","811608","0.0-13.0-0.38","89303","523781","lowRank"
"172","4","40","false","risky","safe","risky","30","927","bandit","bandit-task","182","815025","0.0-13.0-0.39","89303","523781","lowRank"
"173","4","41","false","context","worst","context","57","1565","bandit","bandit-task","183","819282","0.0-13.0-0.40","89303","523781","lowRank"
"174","4","42","true","","","context","82","727","bandit","bandit-task","184","822524","0.0-13.0-0.41","89303","523781","lowRank"
"175","4","43","false","risky","safe","safe","50","880","bandit","bandit-task","185","825928","0.0-13.0-0.42","89303","523781","lowRank"
"176","4","44","false","risky","safe","safe","50","1248","bandit","bandit-task","186","829911","0.0-13.0-0.43","89303","523781","lowRank"
"177","5","1","false","worst","context","context","98","1090","bandit","bandit-task","188","835304","0.0-15.0-0.0","89303","523781","lowRank"
"178","5","2","false","risky","safe","safe","50","877","bandit","bandit-task","189","838629","0.0-15.0-0.1","89303","523781","lowRank"
"179","5","3","false","context","worst","context","91","1086","bandit","bandit-task","190","842259","0.0-15.0-0.2","89303","523781","lowRank"
"180","5","4","true","","","worst","0","784","bandit","bandit-task","191","845960","0.0-15.0-0.3","89303","523781","lowRank"
"181","5","5","false","worst","context","worst","0","1089","bandit","bandit-task","192","849524","0.0-15.0-0.4","89303","523781","lowRank"
"182","5","6","true","","","context","63","689","bandit","bandit-task","193","852663","0.0-15.0-0.5","89303","523781","lowRank"
"183","5","7","false","context","worst","context","1","916","bandit","bandit-task","194","856300","0.0-15.0-0.6","89303","523781","lowRank"
"184","5","8","false","worst","context","context","64","1052","bandit","bandit-task","195","859836","0.0-15.0-0.7","89303","523781","lowRank"
"185","5","9","false","worst","context","context","62","820","bandit","bandit-task","196","863448","0.0-15.0-0.8","89303","523781","lowRank"
"186","5","10","false","worst","context","context","93","792","bandit","bandit-task","197","866752","0.0-15.0-0.9","89303","523781","lowRank"
"187","5","11","false","context","worst","context","88","1052","bandit","bandit-task","198","870547","0.0-15.0-0.10","89303","523781","lowRank"
"188","5","12","false","context","worst","context","35","1390","bandit","bandit-task","199","874372","0.0-15.0-0.11","89303","523781","lowRank"
"189","5","13","false","context","worst","worst","0","821","bandit","bandit-task","200","877951","0.0-15.0-0.12","89303","523781","lowRank"
"190","5","14","false","worst","context","context","95","920","bandit","bandit-task","201","881419","0.0-15.0-0.13","89303","523781","lowRank"
"191","5","15","false","safe","risky","risky","70","908","bandit","bandit-task","202","884792","0.0-15.0-0.14","89303","523781","lowRank"
"192","5","16","true","","","safe","50","748","bandit","bandit-task","203","887991","0.0-15.0-0.15","89303","523781","lowRank"
"193","5","17","false","context","worst","context","42","1250","bandit","bandit-task","204","892014","0.0-15.0-0.16","89303","523781","lowRank"
"194","5","18","false","context","worst","worst","0","1177","bandit","bandit-task","205","895663","0.0-15.0-0.17","89303","523781","lowRank"
"195","5","19","true","","","worst","0","822","bandit","bandit-task","206","899132","0.0-15.0-0.18","89303","523781","lowRank"
"196","5","20","true","","","risky","30","742","bandit","bandit-task","207","902426","0.0-15.0-0.19","89303","523781","lowRank"
"197","5","21","true","","","safe","50","748","bandit","bandit-task","208","905757","0.0-15.0-0.20","89303","523781","lowRank"
"198","5","22","false","risky","safe","safe","50","1113","bandit","bandit-task","209","909509","0.0-15.0-0.21","89303","523781","lowRank"
"199","5","23","false","safe","risky","risky","30","1009","bandit","bandit-task","210","913022","0.0-15.0-0.22","89303","523781","lowRank"
"200","5","24","false","safe","risky","safe","50","792","bandit","bandit-task","211","916723","0.0-15.0-0.23","89303","523781","lowRank"
"201","5","25","false","context","worst","context","1","966","bandit","bandit-task","212","920198","0.0-15.0-0.24","89303","523781","lowRank"
"202","5","26","false","risky","safe","safe","50","843","bandit","bandit-task","213","923544","0.0-15.0-0.25","89303","523781","lowRank"
"203","5","27","false","worst","context","context","1","1498","bandit","bandit-task","214","927507","0.0-15.0-0.26","89303","523781","lowRank"
"204","5","28","false","context","worst","worst","0","1963","bandit","bandit-task","215","932156","0.0-15.0-0.27","89303","523781","lowRank"
"205","5","29","false","risky","safe","safe","50","1010","bandit","bandit-task","216","935748","0.0-15.0-0.28","89303","523781","lowRank"
"206","5","30","false","risky","safe","risky","70","864","bandit","bandit-task","217","939200","0.0-15.0-0.29","89303","523781","lowRank"
"207","5","31","false","context","worst","context","86","857","bandit","bandit-task","218","942538","0.0-15.0-0.30","89303","523781","lowRank"
"208","5","32","false","worst","context","context","97","798","bandit","bandit-task","219","945838","0.0-15.0-0.31","89303","523781","lowRank"
"209","5","33","false","context","worst","context","1","1104","bandit","bandit-task","220","949803","0.0-15.0-0.32","89303","523781","lowRank"
"210","5","34","false","worst","context","context","85","929","bandit","bandit-task","221","954074","0.0-15.0-0.33","89303","523781","lowRank"
"211","5","35","true","","","risky","70","731","bandit","bandit-task","222","957541","0.0-15.0-0.34","89303","523781","lowRank"
"212","5","36","false","context","worst","context","1","1007","bandit","bandit-task","223","961905","0.0-15.0-0.35","89303","523781","lowRank"
"213","5","37","false","context","worst","context","58","893","bandit","bandit-task","224","965510","0.0-15.0-0.36","89303","523781","lowRank"
"214","5","38","false","context","worst","context","36","850","bandit","bandit-task","225","969367","0.0-15.0-0.37","89303","523781","lowRank"
"215","5","39","false","safe","risky","safe","50","1074","bandit","bandit-task","226","972944","0.0-15.0-0.38","89303","523781","lowRank"
"216","5","40","false","safe","risky","risky","30","734","bandit","bandit-task","227","976441","0.0-15.0-0.39","89303","523781","lowRank"
"217","5","41","false","context","worst","context","1","724","bandit","bandit-task","228","979668","0.0-15.0-0.40","89303","523781","lowRank"
"218","5","42","true","","","context","1","770","bandit","bandit-task","229","983281","0.0-15.0-0.41","89303","523781","lowRank"
"219","5","43","false","safe","risky","safe","50","1010","bandit","bandit-task","230","987048","0.0-15.0-0.42","89303","523781","lowRank"
"220","5","44","false","risky","safe","safe","50","849","bandit","bandit-task","231","991137","0.0-15.0-0.43","89303","523781","lowRank"
