"banditTrial","block","trialInBlock","singleOption","leftOption","rightOption","choice","feedback","rt","task","trial_type","trial_index","time_elapsed","internal_node_id","participant","turkCode","condition"
"1","1","1","false","risky","safe","safe","50","2073","bandit","bandit-task","8","174072","0.0-7.0-0.0","12700","488246","highRank"
"2","1","2","true","","","risky","30","1078","bandit","bandit-task","9","178082","0.0-7.0-0.1","12700","488246","highRank"
"3","1","3","false","worst","context","worst","0","31637","bandit","bandit-task","10","215100","0.0-7.0-0.2","12700","488246","highRank"
"4","1","4","false","risky","safe","safe","50","1204","bandit","bandit-task","11","219086","0.0-7.0-0.3","12700","488246","highRank"
"5","1","5","false","context","worst","context","100","3377","bandit","bandit-task","12","227398","0.0-7.0-0.4","12700","488246","highRank"
"6","1","6","false","context","worst","context","3","1140","bandit","bandit-task","13","234442","0.0-7.0-0.5","12700","488246","highRank"
"7","1","7","false","risky","safe","safe","50","1342","bandit","bandit-task","14","242250","0.0-7.0-0.6","12700","488246","highRank"
"8","1","8","false","context","worst","worst","0","1930","bandit","bandit-task","15","249003","0.0-7.0-0.7","12700","488246","highRank"
"9","1","9","false","risky","safe","safe","50","1298","bandit","bandit-task","16","253143","0.0-7.0-0.8","12700","488246","highRank"
"10","1","10","true","","","worst","0","1059","bandit","bandit-task","17","256957","0.0-7.0-0.9","12700","488246","highRank"
"11","1","11","false","worst","context","context","12","2666","bandit","bandit-task","18","262355","0.0-7.0-0.10","12700","488246","highRank"
"12","1","12","false","worst","context","context","17","2567","bandit","bandit-task","19","267673","0.0-7.0-0.11","12700","488246","highRank"
"13","1","13","true","","","context","45","900","bandit","bandit-task","20","271181","0.0-7.0-0.12","12700","488246","highRank"
"14","1","14","true","","","risky","70","1227","bandit","bandit-task","21","279793","0.0-7.0-0.13","12700","488246","highRank"
"15","1","15","true","","","safe","50","1119","bandit","bandit-task","22","287239","0.0-7.0-0.14","12700","488246","highRank"
"16","1","16","false","context","worst","context","63","1655","bandit","bandit-task","23","291634","0.0-7.0-0.15","12700","488246","highRank"
"17","1","17","false","context","worst","context","9","1836","bandit","bandit-task","24","296162","0.0-7.0-0.16","12700","488246","highRank"
"18","1","18","false","risky","safe","safe","50","1234","bandit","bandit-task","25","300588","0.0-7.0-0.17","12700","488246","highRank"
"19","1","19","false","risky","safe","safe","50","3037","bandit","bandit-task","26","306642","0.0-7.0-0.18","12700","488246","highRank"
"20","1","20","false","risky","safe","safe","50","1113","bandit","bandit-task","27","310313","0.0-7.0-0.19","12700","488246","highRank"
"21","1","21","false","context","worst","context","39","2356","bandit","bandit-task","28","315172","0.0-7.0-0.20","12700","488246","highRank"
"22","1","22","false","worst","context","context","100","4109","bandit","bandit-task","29","321880","0.0-7.0-0.21","12700","488246","highRank"
"23","1","23","false","context","worst","context","18","1305","bandit","bandit-task","30","325660","0.0-7.0-0.22","12700","488246","highRank"
"24","1","24","false","worst","context","context","100","1080","bandit","bandit-task","31","329318","0.0-7.0-0.23","12700","488246","highRank"
"25","1","25","false","worst","context","context","36","1301","bandit","bandit-task","32","333103","0.0-7.0-0.24","12700","488246","highRank"
"26","1","26","false","worst","context","context","100","1053","bandit","bandit-task","33","337341","0.0-7.0-0.25","12700","488246","highRank"
"27","1","27","false","risky","safe","safe","50","1181","bandit","bandit-task","34","341036","0.0-7.0-0.26","12700","488246","highRank"
"28","1","28","false","worst","context","context","100","943","bandit","bandit-task","35","344556","0.0-7.0-0.27","12700","488246","highRank"
"29","1","29","false","risky","safe","safe","50","2711","bandit","bandit-task","36","349861","0.0-7.0-0.28","12700","488246","highRank"
"30","1","30","false","context","worst","context","100","1927","bandit","bandit-task","37","354250","0.0-7.0-0.29","12700","488246","highRank"
"31","1","31","false","worst","context","context","38","953","bandit","bandit-task","38","357667","0.0-7.0-0.30","12700","488246","highRank"
"32","1","32","true","","","context","100","599","bandit","bandit-task","39","360753","0.0-7.0-0.31","12700","488246","highRank"
"33","1","33","false","context","worst","context","40","1176","bandit","bandit-task","40","364768","0.0-7.0-0.32","12700","488246","highRank"
"34","1","34","false","safe","risky","safe","50","1036","bandit","bandit-task","41","368248","0.0-7.0-0.33","12700","488246","highRank"
"35","1","35","true","","","safe","50","593","bandit","bandit-task","42","371297","0.0-7.0-0.34","12700","488246","highRank"
"36","1","36","false","worst","context","context","20","1335","bandit","bandit-task","43","375142","0.0-7.0-0.35","12700","488246","highRank"
"37","1","37","false","risky","safe","safe","50","1251","bandit","bandit-task","44","379007","0.0-7.0-0.36","12700","488246","highRank"
"38","1","38","false","worst","context","context","16","1335","bandit","bandit-task","45","382856","0.0-7.0-0.37","12700","488246","highRank"
"39","1","39","false","worst","context","context","100","2035","bandit","bandit-task","46","387551","0.0-7.0-0.38","12700","488246","highRank"
"40","1","40","false","context","worst","context","64","1088","bandit","bandit-task","47","391117","0.0-7.0-0.39","12700","488246","highRank"
"41","1","41","false","safe","risky","safe","50","1066","bandit","bandit-task","48","394634","0.0-7.0-0.40","12700","488246","highRank"
"42","1","42","true","","","worst","0","874","bandit","bandit-task","49","397999","0.0-7.0-0.41","12700","488246","highRank"
"43","1","43","false","worst","context","context","57","835","bandit","bandit-task","50","401338","0.0-7.0-0.42","12700","488246","highRank"
"44","1","44","false","worst","context","context","19","956","bandit","bandit-task","51","404766","0.0-7.0-0.43","12700","488246","highRank"
"45","2","1","false","safe","risky","safe","50","1222","bandit","bandit-task","53","410749","0.0-9.0-0.0","12700","488246","highRank"
"46","2","2","true","","","risky","70","835","bandit","bandit-task","54","414060","0.0-9.0-0.1","12700","488246","highRank"
"47","2","3","false","context","worst","context","100","1552","bandit","bandit-task","55","418076","0.0-9.0-0.2","12700","488246","highRank"
"48","2","4","false","safe","risky","safe","50","1182","bandit","bandit-task","56","422733","0.0-9.0-0.3","12700","488246","highRank"
"49","2","5","false","worst","context","context","100","1495","bandit","bandit-task","57","426855","0.0-9.0-0.4","12700","488246","highRank"
"50","2","6","false","worst","context","context","43","968","bandit","bandit-task","58","431470","0.0-9.0-0.5","12700","488246","highRank"
"51","2","7","false","risky","safe","safe","50","1682","bandit","bandit-task","59","435672","0.0-9.0-0.6","12700","488246","highRank"
"52","2","8","false","worst","context","context","42","1265","bandit","bandit-task","60","439463","0.0-9.0-0.7","12700","488246","highRank"
"53","2","9","false","safe","risky","safe","50","998","bandit","bandit-task","61","442946","0.0-9.0-0.8","12700","488246","highRank"
"54","2","10","true","","","worst","0","728","bandit","bandit-task","62","446123","0.0-9.0-0.9","12700","488246","highRank"
"55","2","11","false","context","worst","context","100","785","bandit","bandit-task","63","449454","0.0-9.0-0.10","12700","488246","highRank"
"56","2","12","false","worst","context","context","4","31261","bandit","bandit-task","64","483267","0.0-9.0-0.11","12700","488246","highRank"
"57","2","13","true","","","context","7","700","bandit","bandit-task","65","486452","0.0-9.0-0.12","12700","488246","highRank"
"58","2","14","true","","","risky","30","867","bandit","bandit-task","66","489873","0.0-9.0-0.13","12700","488246","highRank"
"59","2","15","true","","","safe","50","799","bandit","bandit-task","67","493141","0.0-9.0-0.14","12700","488246","highRank"
"60","2","16","false","worst","context","context","100","1062","bandit","bandit-task","68","496794","0.0-9.0-0.15","12700","488246","highRank"
"61","2","17","false","worst","context","context","10","937","bandit","bandit-task","69","500258","0.0-9.0-0.16","12700","488246","highRank"
"62","2","18","false","risky","safe","safe","50","832","bandit","bandit-task","70","503602","0.0-9.0-0.17","12700","488246","highRank"
"63","2","19","false","risky","safe","safe","50","1944","bandit","bandit-task","71","508033","0.0-9.0-0.18","12700","488246","highRank"
"64","2","20","false","risky","safe","safe","50","633","bandit","bandit-task","72","511650","0.0-9.0-0.19","12700","488246","highRank"
"65","2","21","false","context","worst","context","37","1296","bandit","bandit-task","73","515440","0.0-9.0-0.20","12700","488246","highRank"
"66","2","22","false","context","worst","context","100","937","bandit","bandit-task","74","518876","0.0-9.0-0.21","12700","488246","highRank"
"67","2","23","false","context","worst","context","100","871","bandit","bandit-task","75","522310","0.0-9.0-0.22","12700","488246","highRank"
"68","2","24","false","context","worst","context","56","725","bandit","bandit-task","76","525506","0.0-9.0-0.23","12700","488246","highRank"
"69","2","25","false","context","worst","context","5","720","bandit","bandit-task","77","528676","0.0-9.0-0.24","12700","488246","highRank"
"70","2","26","false","context","worst","context","35","671","bandit","bandit-task","78","532473","0.0-9.0-0.25","12700","488246","highRank"
"71","2","27","false","safe","risky","safe","50","924","bandit","bandit-task","79","535889","0.0-9.0-0.26","12700","488246","highRank"
"72","2","28","false","context","worst","context","100","1103","bandit","bandit-task","80","539481","0.0-9.0-0.27","12700","488246","highRank"
"73","2","29","false","risky","safe","safe","50","1652","bandit","bandit-task","81","553148","0.0-9.0-0.28","12700","488246","highRank"
"74","2","30","false","worst","context","context","59","1216","bandit","bandit-task","82","556854","0.0-9.0-0.29","12700","488246","highRank"
"75","2","31","false","worst","context","context","44","960","bandit","bandit-task","83","560282","0.0-9.0-0.30","12700","488246","highRank"
"76","2","32","true","","","context","14","817","bandit","bandit-task","84","563579","0.0-9.0-0.31","12700","488246","highRank"
"77","2","33","false","context","worst","context","100","1002","bandit","bandit-task","85","567077","0.0-9.0-0.32","12700","488246","highRank"
"78","2","34","false","safe","risky","safe","50","1170","bandit","bandit-task","86","570730","0.0-9.0-0.33","12700","488246","highRank"
"79","2","35","true","","","safe","50","605","bandit","bandit-task","87","573747","0.0-9.0-0.34","12700","488246","highRank"
"80","2","36","false","context","worst","context","8","951","bandit","bandit-task","88","577160","0.0-9.0-0.35","12700","488246","highRank"
"81","2","37","false","risky","safe","safe","50","1231","bandit","bandit-task","89","580811","0.0-9.0-0.36","12700","488246","highRank"
"82","2","38","false","context","worst","context","13","920","bandit","bandit-task","90","584263","0.0-9.0-0.37","12700","488246","highRank"
"83","2","39","false","worst","context","context","6","1026","bandit","bandit-task","91","587737","0.0-9.0-0.38","12700","488246","highRank"
"84","2","40","false","worst","context","context","61","922","bandit","bandit-task","92","591194","0.0-9.0-0.39","12700","488246","highRank"
"85","2","41","false","risky","safe","safe","50","902","bandit","bandit-task","93","594602","0.0-9.0-0.40","12700","488246","highRank"
"86","2","42","true","","","worst","0","611","bandit","bandit-task","94","597626","0.0-9.0-0.41","12700","488246","highRank"
"87","2","43","false","worst","context","context","2","642","bandit","bandit-task","95","600677","0.0-9.0-0.42","12700","488246","highRank"
"88","2","44","false","context","worst","context","11","968","bandit","bandit-task","96","604050","0.0-9.0-0.43","12700","488246","highRank"
"89","3","1","false","safe","risky","safe","50","1075","bandit","bandit-task","98","608612","0.0-11.0-0.0","12700","488246","highRank"
"90","3","2","true","","","risky","30","1859","bandit","bandit-task","99","613119","0.0-11.0-0.1","12700","488246","highRank"
"91","3","3","false","context","worst","context","100","1036","bandit","bandit-task","100","616660","0.0-11.0-0.2","12700","488246","highRank"
"92","3","4","false","risky","safe","safe","50","953","bandit","bandit-task","101","620134","0.0-11.0-0.3","12700","488246","highRank"
"93","3","5","false","context","worst","context","37","925","bandit","bandit-task","102","623677","0.0-11.0-0.4","12700","488246","highRank"
"94","3","6","false","worst","context","context","100","1086","bandit","bandit-task","103","627254","0.0-11.0-0.5","12700","488246","highRank"
"95","3","7","false","safe","risky","safe","50","743","bandit","bandit-task","104","630503","0.0-11.0-0.6","12700","488246","highRank"
"96","3","8","false","worst","context","context","62","1214","bandit","bandit-task","105","634180","0.0-11.0-0.7","12700","488246","highRank"
"97","3","9","false","safe","risky","safe","50","733","bandit","bandit-task","106","637362","0.0-11.0-0.8","12700","488246","highRank"
"98","3","10","true","","","worst","0","609","bandit","bandit-task","107","640390","0.0-11.0-0.9","12700","488246","highRank"
"99","3","11","false","worst","context","context","65","975","bandit","bandit-task","108","643839","0.0-11.0-0.10","12700","488246","highRank"
"100","3","12","false","context","worst","context","12","976","bandit","bandit-task","109","647252","0.0-11.0-0.11","12700","488246","highRank"
"101","3","13","true","","","context","41","554","bandit","bandit-task","110","650250","0.0-11.0-0.12","12700","488246","highRank"
"102","3","14","true","","","risky","70","1003","bandit","bandit-task","111","653697","0.0-11.0-0.13","12700","488246","highRank"
"103","3","15","true","","","safe","50","611","bandit","bandit-task","112","656762","0.0-11.0-0.14","12700","488246","highRank"
"104","3","16","false","context","worst","context","15","1449","bandit","bandit-task","113","660658","0.0-11.0-0.15","12700","488246","highRank"
"105","3","17","false","worst","context","context","100","1867","bandit","bandit-task","114","664974","0.0-11.0-0.16","12700","488246","highRank"
"106","3","18","false","safe","risky","safe","50","1330","bandit","bandit-task","115","668792","0.0-11.0-0.17","12700","488246","highRank"
"107","3","19","false","safe","risky","safe","50","801","bandit","bandit-task","116","672032","0.0-11.0-0.18","12700","488246","highRank"
"108","3","20","false","risky","safe","safe","50","921","bandit","bandit-task","117","675423","0.0-11.0-0.19","12700","488246","highRank"
"109","3","21","false","context","worst","context","100","1020","bandit","bandit-task","118","678951","0.0-11.0-0.20","12700","488246","highRank"
"110","3","22","false","worst","context","context","100","1199","bandit","bandit-task","119","682574","0.0-11.0-0.21","12700","488246","highRank"
"111","3","23","false","worst","context","context","100","928","bandit","bandit-task","120","686064","0.0-11.0-0.22","12700","488246","highRank"
"112","3","24","false","worst","context","context","1","915","bandit","bandit-task","121","689499","0.0-11.0-0.23","12700","488246","highRank"
"113","3","25","false","context","worst","context","63","928","bandit","bandit-task","122","692887","0.0-11.0-0.24","12700","488246","highRank"
"114","3","26","false","worst","context","context","2","1109","bandit","bandit-task","123","696500","0.0-11.0-0.25","12700","488246","highRank"
"115","3","27","false","risky","safe","safe","50","1101","bandit","bandit-task","124","700057","0.0-11.0-0.26","12700","488246","highRank"
"116","3","28","false","worst","context","context","58","1065","bandit","bandit-task","125","703567","0.0-11.0-0.27","12700","488246","highRank"
"117","3","29","false","risky","safe","safe","50","966","bandit","bandit-task","126","707084","0.0-11.0-0.28","12700","488246","highRank"
"118","3","30","false","context","worst","context","16","1138","bandit","bandit-task","127","710824","0.0-11.0-0.29","12700","488246","highRank"
"119","3","31","false","worst","context","context","100","1682","bandit","bandit-task","128","715055","0.0-11.0-0.30","12700","488246","highRank"
"120","3","32","true","","","context","55","649","bandit","bandit-task","129","718270","0.0-11.0-0.31","12700","488246","highRank"
"121","3","33","false","context","worst","context","100","955","bandit","bandit-task","130","721703","0.0-11.0-0.32","12700","488246","highRank"
"122","3","34","false","safe","risky","safe","50","956","bandit","bandit-task","131","725133","0.0-11.0-0.33","12700","488246","highRank"
"123","3","35","true","","","safe","50","536","bandit","bandit-task","132","728073","0.0-11.0-0.34","12700","488246","highRank"
"124","3","36","false","context","worst","context","3","1670","bandit","bandit-task","133","732184","0.0-11.0-0.35","12700","488246","highRank"
"125","3","37","false","risky","safe","safe","50","789","bandit","bandit-task","134","735422","0.0-11.0-0.36","12700","488246","highRank"
"126","3","38","false","context","worst","context","60","779","bandit","bandit-task","135","738656","0.0-11.0-0.37","12700","488246","highRank"
"127","3","39","false","context","worst","context","100","740","bandit","bandit-task","136","741821","0.0-11.0-0.38","12700","488246","highRank"
"128","3","40","false","worst","context","context","65","974","bandit","bandit-task","137","745217","0.0-11.0-0.39","12700","488246","highRank"
"129","3","41","false","risky","safe","safe","50","828","bandit","bandit-task","138","748468","0.0-11.0-0.40","12700","488246","highRank"
"130","3","42","true","","","worst","0","655","bandit","bandit-task","139","751578","0.0-11.0-0.41","12700","488246","highRank"
"131","3","43","false","context","worst","context","60","781","bandit","bandit-task","140","754871","0.0-11.0-0.42","12700","488246","highRank"
"132","3","44","false","worst","context","context","20","1013","bandit","bandit-task","141","758765","0.0-11.0-0.43","12700","488246","highRank"
"133","4","1","false","risky","safe","safe","50","984","bandit","bandit-task","143","764991","0.0-13.0-0.0","12700","488246","highRank"
"134","4","2","true","","","risky","30","683","bandit","bandit-task","144","768118","0.0-13.0-0.1","12700","488246","highRank"
"135","4","3","false","context","worst","context","15","1250","bandit","bandit-task","145","771826","0.0-13.0-0.2","12700","488246","highRank"
"136","4","4","false","risky","safe","safe","50","766","bandit","bandit-task","146","775013","0.0-13.0-0.3","12700","488246","highRank"
"137","4","5","false","worst","context","context","100","789","bandit","bandit-task","147","778300","0.0-13.0-0.4","12700","488246","highRank"
"138","4","6","false","context","worst","context","13","705","bandit","bandit-task","148","781426","0.0-13.0-0.5","12700","488246","highRank"
"139","4","7","false","safe","risky","safe","50","871","bandit","bandit-task","149","784742","0.0-13.0-0.6","12700","488246","highRank"
"140","4","8","false","worst","context","context","42","1216","bandit","bandit-task","150","788432","0.0-13.0-0.7","12700","488246","highRank"
"141","4","9","false","safe","risky","safe","50","771","bandit","bandit-task","151","791626","0.0-13.0-0.8","12700","488246","highRank"
"142","4","10","true","","","worst","0","606","bandit","bandit-task","152","794609","0.0-13.0-0.9","12700","488246","highRank"
"143","4","11","false","context","worst","context","100","830","bandit","bandit-task","153","797885","0.0-13.0-0.10","12700","488246","highRank"
"144","4","12","false","context","worst","context","6","722","bandit","bandit-task","154","801009","0.0-13.0-0.11","12700","488246","highRank"
"145","4","13","true","","","context","14","538","bandit","bandit-task","155","803968","0.0-13.0-0.12","12700","488246","highRank"
"146","4","14","true","","","risky","30","579","bandit","bandit-task","156","806978","0.0-13.0-0.13","12700","488246","highRank"
"147","4","15","true","","","safe","50","544","bandit","bandit-task","157","809923","0.0-13.0-0.14","12700","488246","highRank"
"148","4","16","false","context","worst","context","39","724","bandit","bandit-task","158","813437","0.0-13.0-0.15","12700","488246","highRank"
"149","4","17","false","context","worst","context","11","2324","bandit","bandit-task","159","818232","0.0-13.0-0.16","12700","488246","highRank"
"150","4","18","false","safe","risky","safe","50","672","bandit","bandit-task","160","821382","0.0-13.0-0.17","12700","488246","highRank"
"151","4","19","false","safe","risky","safe","50","613","bandit","bandit-task","161","824464","0.0-13.0-0.18","12700","488246","highRank"
"152","4","20","false","safe","risky","safe","50","598","bandit","bandit-task","162","827527","0.0-13.0-0.19","12700","488246","highRank"
"153","4","21","false","context","worst","context","38","709","bandit","bandit-task","163","830700","0.0-13.0-0.20","12700","488246","highRank"
"154","4","22","false","context","worst","context","100","633","bandit","bandit-task","164","833758","0.0-13.0-0.21","12700","488246","highRank"
"155","4","23","false","context","worst","context","100","567","bandit","bandit-task","165","836811","0.0-13.0-0.22","12700","488246","highRank"
"156","4","24","false","context","worst","context","100","539","bandit","bandit-task","166","839987","0.0-13.0-0.23","12700","488246","highRank"
"157","4","25","false","context","worst","context","100","597","bandit","bandit-task","167","843016","0.0-13.0-0.24","12700","488246","highRank"
"158","4","26","false","context","worst","context","45","514","bandit","bandit-task","168","845988","0.0-13.0-0.25","12700","488246","highRank"
"159","4","27","false","risky","safe","safe","50","1057","bandit","bandit-task","169","849478","0.0-13.0-0.26","12700","488246","highRank"
"160","4","28","false","context","worst","context","40","739","bandit","bandit-task","170","852727","0.0-13.0-0.27","12700","488246","highRank"
"161","4","29","false","safe","risky","safe","50","1010","bandit","bandit-task","171","856408","0.0-13.0-0.28","12700","488246","highRank"
"162","4","30","false","worst","context","context","100","1077","bandit","bandit-task","172","859912","0.0-13.0-0.29","12700","488246","highRank"
"163","4","31","false","context","worst","context","57","626","bandit","bandit-task","173","863015","0.0-13.0-0.30","12700","488246","highRank"
"164","4","32","true","","","context","10","562","bandit","bandit-task","174","866034","0.0-13.0-0.31","12700","488246","highRank"
"165","4","33","false","context","worst","context","19","613","bandit","bandit-task","175","869223","0.0-13.0-0.32","12700","488246","highRank"
"166","4","34","false","safe","risky","safe","50","1012","bandit","bandit-task","176","872671","0.0-13.0-0.33","12700","488246","highRank"
"167","4","35","true","","","safe","50","556","bandit","bandit-task","177","875771","0.0-13.0-0.34","12700","488246","highRank"
"168","4","36","false","worst","context","context","100","1116","bandit","bandit-task","178","879319","0.0-13.0-0.35","12700","488246","highRank"
"169","4","37","false","safe","risky","safe","50","797","bandit","bandit-task","179","882543","0.0-13.0-0.36","12700","488246","highRank"
"170","4","38","false","context","worst","context","4","766","bandit","bandit-task","180","885722","0.0-13.0-0.37","12700","488246","highRank"
"171","4","39","false","context","worst","context","17","573","bandit","bandit-task","181","888726","0.0-13.0-0.38","12700","488246","highRank"
"172","4","40","false","context","worst","context","7","618","bandit","bandit-task","182","891770","0.0-13.0-0.39","12700","488246","highRank"
"173","4","41","false","safe","risky","safe","50","866","bandit","bandit-task","183","895056","0.0-13.0-0.40","12700","488246","highRank"
"174","4","42","true","","","worst","0","816","bandit","bandit-task","184","898283","0.0-13.0-0.41","12700","488246","highRank"
"175","4","43","false","worst","context","context","100","748","bandit","bandit-task","185","901471","0.0-13.0-0.42","12700","488246","highRank"
"176","4","44","false","context","worst","context","100","1018","bandit","bandit-task","186","904972","0.0-13.0-0.43","12700","488246","highRank"
"177","5","1","false","risky","safe","safe","50","873","bandit","bandit-task","188","909253","0.0-15.0-0.0","12700","488246","highRank"
"178","5","2","true","","","risky","70","650","bandit","bandit-task","189","912357","0.0-15.0-0.1","12700","488246","highRank"
"179","5","3","false","worst","context","context","100","1593","bandit","bandit-task","190","916392","0.0-15.0-0.2","12700","488246","highRank"
"180","5","4","false","safe","risky","safe","50","929","bandit","bandit-task","191","919759","0.0-15.0-0.3","12700","488246","highRank"
"181","5","5","false","worst","context","context","35","2139","bandit","bandit-task","192","924353","0.0-15.0-0.4","12700","488246","highRank"
"182","5","6","false","context","worst","context","100","851","bandit","bandit-task","193","927684","0.0-15.0-0.5","12700","488246","highRank"
"183","5","7","false","safe","risky","safe","50","718","bandit","bandit-task","194","930907","0.0-15.0-0.6","12700","488246","highRank"
"184","5","8","false","context","worst","context","5","4650","bandit","bandit-task","195","938013","0.0-15.0-0.7","12700","488246","highRank"
"185","5","9","false","safe","risky","safe","50","1471","bandit","bandit-task","196","941909","0.0-15.0-0.8","12700","488246","highRank"
"186","5","10","true","","","worst","0","715","bandit","bandit-task","197","945082","0.0-15.0-0.9","12700","488246","highRank"
"187","5","11","false","worst","context","context","43","760","bandit","bandit-task","198","948353","0.0-15.0-0.10","12700","488246","highRank"
"188","5","12","false","worst","context","context","1","901","bandit","bandit-task","199","951631","0.0-15.0-0.11","12700","488246","highRank"
"189","5","13","true","","","context","55","590","bandit","bandit-task","200","954659","0.0-15.0-0.12","12700","488246","highRank"
"190","5","14","true","","","risky","30","679","bandit","bandit-task","201","957747","0.0-15.0-0.13","12700","488246","highRank"
"191","5","15","true","","","safe","50","632","bandit","bandit-task","202","960824","0.0-15.0-0.14","12700","488246","highRank"
"192","5","16","false","context","worst","context","36","1178","bandit","bandit-task","203","964452","0.0-15.0-0.15","12700","488246","highRank"
"193","5","17","false","worst","context","context","9","1090","bandit","bandit-task","204","968012","0.0-15.0-0.16","12700","488246","highRank"
"194","5","18","false","safe","risky","safe","50","906","bandit","bandit-task","205","971362","0.0-15.0-0.17","12700","488246","highRank"
"195","5","19","false","risky","safe","safe","50","732","bandit","bandit-task","206","974623","0.0-15.0-0.18","12700","488246","highRank"
"196","5","20","false","risky","safe","safe","50","1007","bandit","bandit-task","207","978097","0.0-15.0-0.19","12700","488246","highRank"
"197","5","21","false","context","worst","context","58","913","bandit","bandit-task","208","981582","0.0-15.0-0.20","12700","488246","highRank"
"198","5","22","false","context","worst","context","61","799","bandit","bandit-task","209","984845","0.0-15.0-0.21","12700","488246","highRank"
"199","5","23","false","worst","context","context","100","806","bandit","bandit-task","210","988146","0.0-15.0-0.22","12700","488246","highRank"
"200","5","24","false","worst","context","context","59","770","bandit","bandit-task","211","991404","0.0-15.0-0.23","12700","488246","highRank"
"201","5","25","false","context","worst","context","18","680","bandit","bandit-task","212","994512","0.0-15.0-0.24","12700","488246","highRank"
"202","5","26","false","context","worst","context","62","665","bandit","bandit-task","213","997635","0.0-15.0-0.25","12700","488246","highRank"
"203","5","27","false","risky","safe","safe","50","765","bandit","bandit-task","214","1000885","0.0-15.0-0.26","12700","488246","highRank"
"204","5","28","false","worst","context","context","100","825","bandit","bandit-task","215","1004186","0.0-15.0-0.27","12700","488246","highRank"
"205","5","29","false","risky","safe","safe","50","849","bandit","bandit-task","216","1007500","0.0-15.0-0.28","12700","488246","highRank"
"206","5","30","false","context","worst","context","8","799","bandit","bandit-task","217","1010753","0.0-15.0-0.29","12700","488246","highRank"
"207","5","31","false","context","worst","context","100","740","bandit","bandit-task","218","1013936","0.0-15.0-0.30","12700","488246","highRank"
"208","5","32","true","","","context","100","582","bandit","bandit-task","219","1017005","0.0-15.0-0.31","12700","488246","highRank"
"209","5","33","false","context","worst","context","56","621","bandit","bandit-task","220","1020158","0.0-15.0-0.32","12700","488246","highRank"
"210","5","34","false","safe","risky","safe","50","919","bandit","bandit-task","221","1023557","0.0-15.0-0.33","12700","488246","highRank"
"211","5","35","true","","","safe","50","578","bandit","bandit-task","222","1026549","0.0-15.0-0.34","12700","488246","highRank"
"212","5","36","false","worst","context","context","44","963","bandit","bandit-task","223","1030111","0.0-15.0-0.35","12700","488246","highRank"
"213","5","37","false","risky","safe","safe","50","844","bandit","bandit-task","224","1033409","0.0-15.0-0.36","12700","488246","highRank"
"214","5","38","false","context","worst","context","64","717","bandit","bandit-task","225","1036634","0.0-15.0-0.37","12700","488246","highRank"
"215","5","39","false","context","worst","context","100","619","bandit","bandit-task","226","1039698","0.0-15.0-0.38","12700","488246","highRank"
"216","5","40","false","context","worst","context","41","622","bandit","bandit-task","227","1042710","0.0-15.0-0.39","12700","488246","highRank"
"217","5","41","false","safe","risky","safe","50","727","bandit","bandit-task","228","1045878","0.0-15.0-0.40","12700","488246","highRank"
"218","5","42","true","","","worst","0","654","bandit","bandit-task","229","1048963","0.0-15.0-0.41","12700","488246","highRank"
"219","5","43","false","worst","context","context","100","870","bandit","bandit-task","230","1052254","0.0-15.0-0.42","12700","488246","highRank"
"220","5","44","false","worst","context","context","100","749","bandit","bandit-task","231","1055450","0.0-15.0-0.43","12700","488246","highRank"
