"banditTrial","block","trialInBlock","singleOption","leftOption","rightOption","choice","feedback","rt","task","trial_type","trial_index","time_elapsed","internal_node_id","participant","turkCode","condition"
"1","1","1","true","","","risky","30","3412","bandit","bandit-task","8","545029","0.0-7.0-0.0","75554","207557","lowRank"
"2","1","2","false","risky","safe","risky","30","9235","bandit","bandit-task","9","559059","0.0-7.0-0.1","75554","207557","lowRank"
"3","1","3","true","","","context","61","1981","bandit","bandit-task","10","574748","0.0-7.0-0.2","75554","207557","lowRank"
"4","1","4","false","risky","safe","risky","70","3876","bandit","bandit-task","11","583164","0.0-7.0-0.3","75554","207557","lowRank"
"5","1","5","false","context","worst","worst","0","3682","bandit","bandit-task","12","599195","0.0-7.0-0.4","75554","207557","lowRank"
"6","1","6","false","risky","safe","risky","30","3491","bandit","bandit-task","13","613985","0.0-7.0-0.5","75554","207557","lowRank"
"7","1","7","false","context","worst","worst","0","6786","bandit","bandit-task","14","631914","0.0-7.0-0.6","75554","207557","lowRank"
"8","1","8","true","","","worst","0","1057","bandit","bandit-task","15","642418","0.0-7.0-0.7","75554","207557","lowRank"
"9","1","9","false","context","worst","context","1","1452","bandit","bandit-task","16","654651","0.0-7.0-0.8","75554","207557","lowRank"
"10","1","10","false","risky","safe","risky","30","1601","bandit","bandit-task","17","666024","0.0-7.0-0.9","75554","207557","lowRank"
"11","1","11","false","context","worst","context","1","3313","bandit","bandit-task","18","673000","0.0-7.0-0.10","75554","207557","lowRank"
"12","1","12","false","worst","context","worst","0","2085","bandit","bandit-task","19","684168","0.0-7.0-0.11","75554","207557","lowRank"
"13","1","13","true","","","safe","50","902","bandit","bandit-task","20","694160","0.0-7.0-0.12","75554","207557","lowRank"
"14","1","14","false","risky","safe","risky","30","2209","bandit","bandit-task","21","706417","0.0-7.0-0.13","75554","207557","lowRank"
"15","1","15","false","worst","context","worst","0","2260","bandit","bandit-task","22","712056","0.0-7.0-0.14","75554","207557","lowRank"
"16","1","16","false","context","worst","context","1","3798","bandit","bandit-task","23","725320","0.0-7.0-0.15","75554","207557","lowRank"
"17","1","17","true","","","safe","50","1138","bandit","bandit-task","24","735870","0.0-7.0-0.16","75554","207557","lowRank"
"18","1","18","true","","","worst","0","1047","bandit","bandit-task","25","744795","0.0-7.0-0.17","75554","207557","lowRank"
"19","1","19","false","risky","safe","risky","70","2346","bandit","bandit-task","26","757920","0.0-7.0-0.18","75554","207557","lowRank"
"20","1","20","false","safe","risky","risky","30","6156","bandit","bandit-task","27","772168","0.0-7.0-0.19","75554","207557","lowRank"
"21","1","21","false","context","worst","worst","0","5168","bandit","bandit-task","28","786156","0.0-7.0-0.20","75554","207557","lowRank"
"22","1","22","false","worst","context","worst","0","2111","bandit","bandit-task","29","795126","0.0-7.0-0.21","75554","207557","lowRank"
"23","1","23","false","worst","context","worst","0","2835","bandit","bandit-task","30","804749","0.0-7.0-0.22","75554","207557","lowRank"
"24","1","24","false","risky","safe","risky","30","1043","bandit","bandit-task","31","811049","0.0-7.0-0.23","75554","207557","lowRank"
"25","1","25","true","","","context","80","969","bandit","bandit-task","32","815630","0.0-7.0-0.24","75554","207557","lowRank"
"26","1","26","false","risky","safe","risky","30","1124","bandit","bandit-task","33","820526","0.0-7.0-0.25","75554","207557","lowRank"
"27","1","27","false","context","worst","worst","0","2532","bandit","bandit-task","34","826523","0.0-7.0-0.26","75554","207557","lowRank"
"28","1","28","false","context","worst","worst","0","2391","bandit","bandit-task","35","833684","0.0-7.0-0.27","75554","207557","lowRank"
"29","1","29","false","context","worst","context","1","915","bandit","bandit-task","36","838728","0.0-7.0-0.28","75554","207557","lowRank"
"30","1","30","false","context","worst","context","41","666","bandit","bandit-task","37","843938","0.0-7.0-0.29","75554","207557","lowRank"
"31","1","31","false","worst","context","context","100","1401","bandit","bandit-task","38","849369","0.0-7.0-0.30","75554","207557","lowRank"
"32","1","32","false","safe","risky","risky","30","1102","bandit","bandit-task","39","854134","0.0-7.0-0.31","75554","207557","lowRank"
"33","1","33","false","worst","context","context","55","1201","bandit","bandit-task","40","858977","0.0-7.0-0.32","75554","207557","lowRank"
"34","1","34","false","worst","context","context","1","812","bandit","bandit-task","41","863828","0.0-7.0-0.33","75554","207557","lowRank"
"35","1","35","false","context","worst","context","1","944","bandit","bandit-task","42","868085","0.0-7.0-0.34","75554","207557","lowRank"
"36","1","36","false","worst","context","worst","0","686","bandit","bandit-task","43","871985","0.0-7.0-0.35","75554","207557","lowRank"
"37","1","37","false","worst","context","context","42","1161","bandit","bandit-task","44","876824","0.0-7.0-0.36","75554","207557","lowRank"
"38","1","38","false","context","worst","context","62","930","bandit","bandit-task","45","881051","0.0-7.0-0.37","75554","207557","lowRank"
"39","1","39","true","","","risky","70","659","bandit","bandit-task","46","885120","0.0-7.0-0.38","75554","207557","lowRank"
"40","1","40","false","safe","risky","risky","70","828","bandit","bandit-task","47","889059","0.0-7.0-0.39","75554","207557","lowRank"
"41","1","41","false","risky","safe","risky","70","699","bandit","bandit-task","48","892876","0.0-7.0-0.40","75554","207557","lowRank"
"42","1","42","false","context","worst","context","95","1079","bandit","bandit-task","49","898247","0.0-7.0-0.41","75554","207557","lowRank"
"43","1","43","false","worst","context","context","65","1454","bandit","bandit-task","50","903151","0.0-7.0-0.42","75554","207557","lowRank"
"44","1","44","false","worst","context","context","99","734","bandit","bandit-task","51","908368","0.0-7.0-0.43","75554","207557","lowRank"
"45","2","1","true","","","risky","30","499","bandit","bandit-task","53","917345","0.0-9.0-0.0","75554","207557","lowRank"
"46","2","2","false","safe","risky","risky","30","1028","bandit","bandit-task","54","921696","0.0-9.0-0.1","75554","207557","lowRank"
"47","2","3","true","","","context","92","633","bandit","bandit-task","55","925372","0.0-9.0-0.2","75554","207557","lowRank"
"48","2","4","false","safe","risky","risky","70","762","bandit","bandit-task","56","929525","0.0-9.0-0.3","75554","207557","lowRank"
"49","2","5","false","worst","context","context","1","1248","bandit","bandit-task","57","934069","0.0-9.0-0.4","75554","207557","lowRank"
"50","2","6","false","risky","safe","risky","70","697","bandit","bandit-task","58","937989","0.0-9.0-0.5","75554","207557","lowRank"
"51","2","7","false","context","worst","context","97","1325","bandit","bandit-task","59","943736","0.0-9.0-0.6","75554","207557","lowRank"
"52","2","8","true","","","worst","0","744","bandit","bandit-task","60","947878","0.0-9.0-0.7","75554","207557","lowRank"
"53","2","9","false","worst","context","context","85","1431","bandit","bandit-task","61","952604","0.0-9.0-0.8","75554","207557","lowRank"
"54","2","10","false","risky","safe","risky","70","751","bandit","bandit-task","62","956746","0.0-9.0-0.9","75554","207557","lowRank"
"55","2","11","false","worst","context","context","83","1131","bandit","bandit-task","63","961154","0.0-9.0-0.10","75554","207557","lowRank"
"56","2","12","false","worst","context","context","38","1209","bandit","bandit-task","64","966443","0.0-9.0-0.11","75554","207557","lowRank"
"57","2","13","true","","","safe","50","752","bandit","bandit-task","65","970880","0.0-9.0-0.12","75554","207557","lowRank"
"58","2","14","false","risky","safe","risky","70","1180","bandit","bandit-task","66","976035","0.0-9.0-0.13","75554","207557","lowRank"
"59","2","15","false","context","worst","context","57","2149","bandit","bandit-task","67","981892","0.0-9.0-0.14","75554","207557","lowRank"
"60","2","16","false","worst","context","worst","0","1992","bandit","bandit-task","68","987481","0.0-9.0-0.15","75554","207557","lowRank"
"61","2","17","true","","","safe","50","692","bandit","bandit-task","69","992434","0.0-9.0-0.16","75554","207557","lowRank"
"62","2","18","true","","","worst","0","798","bandit","bandit-task","70","997251","0.0-9.0-0.17","75554","207557","lowRank"
"63","2","19","false","safe","risky","risky","30","1243","bandit","bandit-task","71","1002500","0.0-9.0-0.18","75554","207557","lowRank"
"64","2","20","false","risky","safe","risky","30","886","bandit","bandit-task","72","1006565","0.0-9.0-0.19","75554","207557","lowRank"
"65","2","21","false","worst","context","context","1","1180","bandit","bandit-task","73","1011084","0.0-9.0-0.20","75554","207557","lowRank"
"66","2","22","false","context","worst","context","39","1331","bandit","bandit-task","74","1015824","0.0-9.0-0.21","75554","207557","lowRank"
"67","2","23","false","context","worst","context","1","1051","bandit","bandit-task","75","1020089","0.0-9.0-0.22","75554","207557","lowRank"
"68","2","24","false","safe","risky","safe","50","661","bandit","bandit-task","76","1023950","0.0-9.0-0.23","75554","207557","lowRank"
"69","2","25","true","","","context","58","693","bandit","bandit-task","77","1027755","0.0-9.0-0.24","75554","207557","lowRank"
"70","2","26","false","safe","risky","safe","50","617","bandit","bandit-task","78","1031724","0.0-9.0-0.25","75554","207557","lowRank"
"71","2","27","false","worst","context","context","90","1002","bandit","bandit-task","79","1035952","0.0-9.0-0.26","75554","207557","lowRank"
"72","2","28","false","context","worst","context","87","1321","bandit","bandit-task","80","1040413","0.0-9.0-0.27","75554","207557","lowRank"
"73","2","29","false","worst","context","context","1","873","bandit","bandit-task","81","1045590","0.0-9.0-0.28","75554","207557","lowRank"
"74","2","30","false","context","worst","context","35","806","bandit","bandit-task","82","1049497","0.0-9.0-0.29","75554","207557","lowRank"
"75","2","31","false","context","worst","context","89","675","bandit","bandit-task","83","1053171","0.0-9.0-0.30","75554","207557","lowRank"
"76","2","32","false","safe","risky","safe","50","678","bandit","bandit-task","84","1056820","0.0-9.0-0.31","75554","207557","lowRank"
"77","2","33","false","context","worst","context","36","969","bandit","bandit-task","85","1060715","0.0-9.0-0.32","75554","207557","lowRank"
"78","2","34","false","context","worst","context","1","682","bandit","bandit-task","86","1065219","0.0-9.0-0.33","75554","207557","lowRank"
"79","2","35","false","context","worst","context","1","713","bandit","bandit-task","87","1069255","0.0-9.0-0.34","75554","207557","lowRank"
"80","2","36","false","worst","context","context","82","858","bandit","bandit-task","88","1073473","0.0-9.0-0.35","75554","207557","lowRank"
"81","2","37","false","context","worst","context","60","722","bandit","bandit-task","89","1077373","0.0-9.0-0.36","75554","207557","lowRank"
"82","2","38","false","worst","context","context","1","966","bandit","bandit-task","90","1081759","0.0-9.0-0.37","75554","207557","lowRank"
"83","2","39","true","","","risky","30","636","bandit","bandit-task","91","1085859","0.0-9.0-0.38","75554","207557","lowRank"
"84","2","40","false","safe","risky","safe","50","768","bandit","bandit-task","92","1089696","0.0-9.0-0.39","75554","207557","lowRank"
"85","2","41","false","risky","safe","risky","70","629","bandit","bandit-task","93","1093543","0.0-9.0-0.40","75554","207557","lowRank"
"86","2","42","false","context","worst","context","59","627","bandit","bandit-task","94","1097309","0.0-9.0-0.41","75554","207557","lowRank"
"87","2","43","false","context","worst","context","81","554","bandit","bandit-task","95","1100984","0.0-9.0-0.42","75554","207557","lowRank"
"88","2","44","false","worst","context","worst","0","538","bandit","bandit-task","96","1104763","0.0-9.0-0.43","75554","207557","lowRank"
"89","3","1","true","","","risky","70","1332","bandit","bandit-task","98","1341468","0.0-11.0-0.0","75554","207557","lowRank"
"90","3","2","false","risky","safe","risky","70","1439","bandit","bandit-task","99","1347293","0.0-11.0-0.1","75554","207557","lowRank"
"91","3","3","true","","","context","43","744","bandit","bandit-task","100","1351556","0.0-11.0-0.2","75554","207557","lowRank"
"92","3","4","false","risky","safe","risky","30","2093","bandit","bandit-task","101","1357161","0.0-11.0-0.3","75554","207557","lowRank"
"93","3","5","false","context","worst","context","1","1093","bandit","bandit-task","102","1361349","0.0-11.0-0.4","75554","207557","lowRank"
"94","3","6","false","risky","safe","risky","30","764","bandit","bandit-task","103","1365314","0.0-11.0-0.5","75554","207557","lowRank"
"95","3","7","false","worst","context","context","1","2411","bandit","bandit-task","104","1371128","0.0-11.0-0.6","75554","207557","lowRank"
"96","3","8","true","","","worst","0","755","bandit","bandit-task","105","1376017","0.0-11.0-0.7","75554","207557","lowRank"
"97","3","9","false","context","worst","worst","0","1485","bandit","bandit-task","106","1380784","0.0-11.0-0.8","75554","207557","lowRank"
"98","3","10","false","safe","risky","safe","50","571","bandit","bandit-task","107","1384444","0.0-11.0-0.9","75554","207557","lowRank"
"99","3","11","false","worst","context","worst","0","557","bandit","bandit-task","108","1388119","0.0-11.0-0.10","75554","207557","lowRank"
"100","3","12","false","context","worst","context","84","596","bandit","bandit-task","109","1394263","0.0-11.0-0.11","75554","207557","lowRank"
"101","3","13","true","","","safe","50","692","bandit","bandit-task","110","1398311","0.0-11.0-0.12","75554","207557","lowRank"
"102","3","14","false","risky","safe","risky","70","651","bandit","bandit-task","111","1402191","0.0-11.0-0.13","75554","207557","lowRank"
"103","3","15","false","worst","context","context","88","1445","bandit","bandit-task","112","1406730","0.0-11.0-0.14","75554","207557","lowRank"
"104","3","16","false","worst","context","context","44","1045","bandit","bandit-task","113","1411028","0.0-11.0-0.15","75554","207557","lowRank"
"105","3","17","true","","","safe","50","702","bandit","bandit-task","114","1415108","0.0-11.0-0.16","75554","207557","lowRank"
"106","3","18","true","","","worst","0","648","bandit","bandit-task","115","1419070","0.0-11.0-0.17","75554","207557","lowRank"
"107","3","19","false","safe","risky","safe","50","1579","bandit","bandit-task","116","1423854","0.0-11.0-0.18","75554","207557","lowRank"
"108","3","20","false","risky","safe","risky","30","711","bandit","bandit-task","117","1427505","0.0-11.0-0.19","75554","207557","lowRank"
"109","3","21","false","worst","context","context","94","977","bandit","bandit-task","118","1431839","0.0-11.0-0.20","75554","207557","lowRank"
"110","3","22","false","context","worst","context","1","1676","bandit","bandit-task","119","1436867","0.0-11.0-0.21","75554","207557","lowRank"
"111","3","23","false","context","worst","context","1","841","bandit","bandit-task","120","1440878","0.0-11.0-0.22","75554","207557","lowRank"
"112","3","24","false","safe","risky","risky","30","1686","bandit","bandit-task","121","1446276","0.0-11.0-0.23","75554","207557","lowRank"
"113","3","25","true","","","context","82","673","bandit","bandit-task","122","1450466","0.0-11.0-0.24","75554","207557","lowRank"
"114","3","26","false","safe","risky","safe","50","1713","bandit","bandit-task","123","1456316","0.0-11.0-0.25","75554","207557","lowRank"
"115","3","27","false","context","worst","context","1","3746","bandit","bandit-task","124","1465195","0.0-11.0-0.26","75554","207557","lowRank"
"116","3","28","false","worst","context","context","64","1215","bandit","bandit-task","125","1474171","0.0-11.0-0.27","75554","207557","lowRank"
"117","3","29","false","worst","context","context","91","1173","bandit","bandit-task","126","1479011","0.0-11.0-0.28","75554","207557","lowRank"
"118","3","30","false","context","worst","context","98","827","bandit","bandit-task","127","1483564","0.0-11.0-0.29","75554","207557","lowRank"
"119","3","31","false","worst","context","context","40","940","bandit","bandit-task","128","1487966","0.0-11.0-0.30","75554","207557","lowRank"
"120","3","32","false","safe","risky","risky","70","2771","bandit","bandit-task","129","1494575","0.0-11.0-0.31","75554","207557","lowRank"
"121","3","33","false","worst","context","context","1","1005","bandit","bandit-task","130","1500101","0.0-11.0-0.32","75554","207557","lowRank"
"122","3","34","false","context","worst","context","1","1014","bandit","bandit-task","131","1504622","0.0-11.0-0.33","75554","207557","lowRank"
"123","3","35","false","context","worst","context","86","723","bandit","bandit-task","132","1509540","0.0-11.0-0.34","75554","207557","lowRank"
"124","3","36","false","worst","context","context","1","888","bandit","bandit-task","133","1513554","0.0-11.0-0.35","75554","207557","lowRank"
"125","3","37","false","context","worst","context","45","864","bandit","bandit-task","134","1517629","0.0-11.0-0.36","75554","207557","lowRank"
"126","3","38","false","context","worst","context","56","671","bandit","bandit-task","135","1523545","0.0-11.0-0.37","75554","207557","lowRank"
"127","3","39","true","","","risky","70","732","bandit","bandit-task","136","1527827","0.0-11.0-0.38","75554","207557","lowRank"
"128","3","40","false","risky","safe","risky","30","634","bandit","bandit-task","137","1531866","0.0-11.0-0.39","75554","207557","lowRank"
"129","3","41","false","safe","risky","risky","30","816","bandit","bandit-task","138","1536517","0.0-11.0-0.40","75554","207557","lowRank"
"130","3","42","false","worst","context","context","94","1064","bandit","bandit-task","139","1541509","0.0-11.0-0.41","75554","207557","lowRank"
"131","3","43","false","context","worst","context","1","843","bandit","bandit-task","140","1546537","0.0-11.0-0.42","75554","207557","lowRank"
"132","3","44","false","context","worst","context","40","1021","bandit","bandit-task","141","1551080","0.0-11.0-0.43","75554","207557","lowRank"
"133","4","1","true","","","risky","70","475","bandit","bandit-task","143","1557948","0.0-13.0-0.0","75554","207557","lowRank"
"134","4","2","false","safe","risky","risky","70","873","bandit","bandit-task","144","1562466","0.0-13.0-0.1","75554","207557","lowRank"
"135","4","3","true","","","context","1","711","bandit","bandit-task","145","1568856","0.0-13.0-0.2","75554","207557","lowRank"
"136","4","4","false","safe","risky","risky","30","1119","bandit","bandit-task","146","1573444","0.0-13.0-0.3","75554","207557","lowRank"
"137","4","5","false","worst","context","context","91","1113","bandit","bandit-task","147","1578463","0.0-13.0-0.4","75554","207557","lowRank"
"138","4","6","false","risky","safe","risky","70","842","bandit","bandit-task","148","1583405","0.0-13.0-0.5","75554","207557","lowRank"
"139","4","7","false","worst","context","context","37","859","bandit","bandit-task","149","1589519","0.0-13.0-0.6","75554","207557","lowRank"
"140","4","8","true","","","worst","0","691","bandit","bandit-task","150","1593916","0.0-13.0-0.7","75554","207557","lowRank"
"141","4","9","false","worst","context","context","93","1088","bandit","bandit-task","151","1598524","0.0-13.0-0.8","75554","207557","lowRank"
"142","4","10","false","safe","risky","risky","30","1314","bandit","bandit-task","152","1603152","0.0-13.0-0.9","75554","207557","lowRank"
"143","4","11","false","context","worst","context","1","1807","bandit","bandit-task","153","1608523","0.0-13.0-0.10","75554","207557","lowRank"
"144","4","12","false","context","worst","worst","0","740","bandit","bandit-task","154","1612727","0.0-13.0-0.11","75554","207557","lowRank"
"145","4","13","true","","","safe","50","658","bandit","bandit-task","155","1616767","0.0-13.0-0.12","75554","207557","lowRank"
"146","4","14","false","safe","risky","safe","50","767","bandit","bandit-task","156","1620772","0.0-13.0-0.13","75554","207557","lowRank"
"147","4","15","false","context","worst","context","38","1201","bandit","bandit-task","157","1626028","0.0-13.0-0.14","75554","207557","lowRank"
"148","4","16","false","worst","context","context","96","812","bandit","bandit-task","158","1630166","0.0-13.0-0.15","75554","207557","lowRank"
"149","4","17","true","","","safe","50","684","bandit","bandit-task","159","1634194","0.0-13.0-0.16","75554","207557","lowRank"
"150","4","18","true","","","worst","0","631","bandit","bandit-task","160","1638332","0.0-13.0-0.17","75554","207557","lowRank"
"151","4","19","false","safe","risky","risky","70","1195","bandit","bandit-task","161","1643142","0.0-13.0-0.18","75554","207557","lowRank"
"152","4","20","false","safe","risky","risky","30","1824","bandit","bandit-task","162","1648399","0.0-13.0-0.19","75554","207557","lowRank"
"153","4","21","false","context","worst","context","63","1286","bandit","bandit-task","163","1653926","0.0-13.0-0.20","75554","207557","lowRank"
"154","4","22","false","context","worst","worst","0","850","bandit","bandit-task","164","1658318","0.0-13.0-0.21","75554","207557","lowRank"
"155","4","23","false","worst","context","context","1","758","bandit","bandit-task","165","1662770","0.0-13.0-0.22","75554","207557","lowRank"
"156","4","24","false","safe","risky","risky","70","2090","bandit","bandit-task","166","1668169","0.0-13.0-0.23","75554","207557","lowRank"
"157","4","25","true","","","context","1","697","bandit","bandit-task","167","1672215","0.0-13.0-0.24","75554","207557","lowRank"
"158","4","26","false","safe","risky","risky","70","1312","bandit","bandit-task","168","1677181","0.0-13.0-0.25","75554","207557","lowRank"
"159","4","27","false","context","worst","context","84","1037","bandit","bandit-task","169","1681407","0.0-13.0-0.26","75554","207557","lowRank"
"160","4","28","false","worst","context","context","58","901","bandit","bandit-task","170","1685805","0.0-13.0-0.27","75554","207557","lowRank"
"161","4","29","false","worst","context","context","44","708","bandit","bandit-task","171","1691026","0.0-13.0-0.28","75554","207557","lowRank"
"162","4","30","false","context","worst","context","1","608","bandit","bandit-task","172","1694818","0.0-13.0-0.29","75554","207557","lowRank"
"163","4","31","false","context","worst","worst","0","695","bandit","bandit-task","173","1701011","0.0-13.0-0.30","75554","207557","lowRank"
"164","4","32","false","risky","safe","risky","30","1505","bandit","bandit-task","174","1706701","0.0-13.0-0.31","75554","207557","lowRank"
"165","4","33","false","worst","context","worst","0","848","bandit","bandit-task","175","1713311","0.0-13.0-0.32","75554","207557","lowRank"
"166","4","34","false","context","worst","context","1","710","bandit","bandit-task","176","1717243","0.0-13.0-0.33","75554","207557","lowRank"
"167","4","35","false","worst","context","context","36","755","bandit","bandit-task","177","1721662","0.0-13.0-0.34","75554","207557","lowRank"
"168","4","36","false","worst","context","context","100","640","bandit","bandit-task","178","1725952","0.0-13.0-0.35","75554","207557","lowRank"
"169","4","37","false","worst","context","context","99","707","bandit","bandit-task","179","1730048","0.0-13.0-0.36","75554","207557","lowRank"
"170","4","38","false","context","worst","context","1","687","bandit","bandit-task","180","1736194","0.0-13.0-0.37","75554","207557","lowRank"
"171","4","39","true","","","risky","70","649","bandit","bandit-task","181","1740577","0.0-13.0-0.38","75554","207557","lowRank"
"172","4","40","false","risky","safe","risky","30","1213","bandit","bandit-task","182","1745624","0.0-13.0-0.39","75554","207557","lowRank"
"173","4","41","false","risky","safe","safe","50","742","bandit","bandit-task","183","1749802","0.0-13.0-0.40","75554","207557","lowRank"
"174","4","42","false","worst","context","worst","0","659","bandit","bandit-task","184","1755345","0.0-13.0-0.41","75554","207557","lowRank"
"175","4","43","false","worst","context","context","1","722","bandit","bandit-task","185","1759974","0.0-13.0-0.42","75554","207557","lowRank"
"176","4","44","false","context","worst","context","59","754","bandit","bandit-task","186","1764147","0.0-13.0-0.43","75554","207557","lowRank"
"177","5","1","true","","","risky","30","532","bandit","bandit-task","188","1769396","0.0-15.0-0.0","75554","207557","lowRank"
"178","5","2","false","risky","safe","risky","30","824","bandit","bandit-task","189","1773559","0.0-15.0-0.1","75554","207557","lowRank"
"179","5","3","true","","","context","55","676","bandit","bandit-task","190","1777616","0.0-15.0-0.2","75554","207557","lowRank"
"180","5","4","false","risky","safe","safe","50","947","bandit","bandit-task","191","1782370","0.0-15.0-0.3","75554","207557","lowRank"
"181","5","5","false","worst","context","worst","0","1589","bandit","bandit-task","192","1787129","0.0-15.0-0.4","75554","207557","lowRank"
"182","5","6","false","safe","risky","safe","50","1510","bandit","bandit-task","193","1792645","0.0-15.0-0.5","75554","207557","lowRank"
"183","5","7","false","context","worst","context","1","1106","bandit","bandit-task","194","1798042","0.0-15.0-0.6","75554","207557","lowRank"
"184","5","8","true","","","worst","0","641","bandit","bandit-task","195","1802097","0.0-15.0-0.7","75554","207557","lowRank"
"185","5","9","false","context","worst","context","60","1331","bandit","bandit-task","196","1807197","0.0-15.0-0.8","75554","207557","lowRank"
"186","5","10","false","risky","safe","safe","50","1327","bandit","bandit-task","197","1812173","0.0-15.0-0.9","75554","207557","lowRank"
"187","5","11","false","worst","context","worst","0","1634","bandit","bandit-task","198","1817442","0.0-15.0-0.10","75554","207557","lowRank"
"188","5","12","false","context","worst","context","41","618","bandit","bandit-task","199","1821696","0.0-15.0-0.11","75554","207557","lowRank"
"189","5","13","true","","","safe","50","600","bandit","bandit-task","200","1826198","0.0-15.0-0.12","75554","207557","lowRank"
"190","5","14","false","safe","risky","safe","50","3084","bandit","bandit-task","201","1832748","0.0-15.0-0.13","75554","207557","lowRank"
"191","5","15","false","context","worst","context","95","1593","bandit","bandit-task","202","1837906","0.0-15.0-0.14","75554","207557","lowRank"
"192","5","16","false","context","worst","context","81","1484","bandit","bandit-task","203","1842911","0.0-15.0-0.15","75554","207557","lowRank"
"193","5","17","true","","","safe","50","694","bandit","bandit-task","204","1846853","0.0-15.0-0.16","75554","207557","lowRank"
"194","5","18","true","","","worst","0","900","bandit","bandit-task","205","1851397","0.0-15.0-0.17","75554","207557","lowRank"
"195","5","19","false","risky","safe","risky","30","810","bandit","bandit-task","206","1855869","0.0-15.0-0.18","75554","207557","lowRank"
"196","5","20","false","safe","risky","safe","50","823","bandit","bandit-task","207","1862814","0.0-15.0-0.19","75554","207557","lowRank"
"197","5","21","false","context","worst","context","1","1256","bandit","bandit-task","208","1867537","0.0-15.0-0.20","75554","207557","lowRank"
"198","5","22","false","context","worst","context","87","940","bandit","bandit-task","209","1873402","0.0-15.0-0.21","75554","207557","lowRank"
"199","5","23","false","context","worst","context","65","821","bandit","bandit-task","210","1878188","0.0-15.0-0.22","75554","207557","lowRank"
"200","5","24","false","safe","risky","safe","50","966","bandit","bandit-task","211","1883050","0.0-15.0-0.23","75554","207557","lowRank"
"201","5","25","true","","","context","83","2100","bandit","bandit-task","212","1888887","0.0-15.0-0.24","75554","207557","lowRank"
"202","5","26","false","risky","safe","risky","30","1240","bandit","bandit-task","213","1893743","0.0-15.0-0.25","75554","207557","lowRank"
"203","5","27","false","context","worst","context","93","963","bandit","bandit-task","214","1897877","0.0-15.0-0.26","75554","207557","lowRank"
"204","5","28","false","worst","context","worst","0","1125","bandit","bandit-task","215","1902052","0.0-15.0-0.27","75554","207557","lowRank"
"205","5","29","false","worst","context","worst","0","509","bandit","bandit-task","216","1909173","0.0-15.0-0.28","75554","207557","lowRank"
"206","5","30","false","context","worst","context","98","721","bandit","bandit-task","217","1913094","0.0-15.0-0.29","75554","207557","lowRank"
"207","5","31","false","context","worst","context","86","349","bandit","bandit-task","218","1916758","0.0-15.0-0.30","75554","207557","lowRank"
"208","5","32","false","safe","risky","safe","50","489","bandit","bandit-task","219","1921410","0.0-15.0-0.31","75554","207557","lowRank"
"209","5","33","false","context","worst","context","56","474","bandit","bandit-task","220","1925351","0.0-15.0-0.32","75554","207557","lowRank"
"210","5","34","false","context","worst","context","85","389","bandit","bandit-task","221","1930363","0.0-15.0-0.33","75554","207557","lowRank"
"211","5","35","false","context","worst","context","96","547","bandit","bandit-task","222","1934136","0.0-15.0-0.34","75554","207557","lowRank"
"212","5","36","false","context","worst","context","1","385","bandit","bandit-task","223","1939527","0.0-15.0-0.35","75554","207557","lowRank"
"213","5","37","false","context","worst","context","92","378","bandit","bandit-task","224","1944443","0.0-15.0-0.36","75554","207557","lowRank"
"214","5","38","false","worst","context","worst","0","545","bandit","bandit-task","225","1948668","0.0-15.0-0.37","75554","207557","lowRank"
"215","5","39","true","","","risky","30","755","bandit","bandit-task","226","1953093","0.0-15.0-0.38","75554","207557","lowRank"
"216","5","40","false","safe","risky","safe","50","509","bandit","bandit-task","227","1957144","0.0-15.0-0.39","75554","207557","lowRank"
"217","5","41","false","safe","risky","safe","50","445","bandit","bandit-task","228","1961698","0.0-15.0-0.40","75554","207557","lowRank"
"218","5","42","false","context","worst","context","1","422","bandit","bandit-task","229","1966716","0.0-15.0-0.41","75554","207557","lowRank"
"219","5","43","false","context","worst","context","45","419","bandit","bandit-task","230","1972218","0.0-15.0-0.42","75554","207557","lowRank"
"220","5","44","false","worst","context","worst","0","612","bandit","bandit-task","231","1977728","0.0-15.0-0.43","75554","207557","lowRank"
