"banditTrial","block","trialInBlock","singleOption","leftOption","rightOption","choice","feedback","rt","task","trial_type","trial_index","time_elapsed","internal_node_id","participant","turkCode","condition"
"1","1","1","false","safe","risky","safe","50","3954","bandit","bandit-task","8","312894","0.0-7.0-0.0","91548","400877","highRank"
"2","1","2","true","","","safe","50","1258","bandit","bandit-task","9","317318","0.0-7.0-0.1","91548","400877","highRank"
"3","1","3","false","safe","risky","safe","50","3134","bandit","bandit-task","10","323534","0.0-7.0-0.2","91548","400877","highRank"
"4","1","4","false","safe","risky","safe","50","1238","bandit","bandit-task","11","327690","0.0-7.0-0.3","91548","400877","highRank"
"5","1","5","false","context","worst","context","62","1456","bandit","bandit-task","12","331920","0.0-7.0-0.4","91548","400877","highRank"
"6","1","6","true","","","risky","30","1464","bandit","bandit-task","13","337411","0.0-7.0-0.5","91548","400877","highRank"
"7","1","7","false","context","worst","context","100","1177","bandit","bandit-task","14","341322","0.0-7.0-0.6","91548","400877","highRank"
"8","1","8","false","safe","risky","safe","50","1640","bandit","bandit-task","15","345802","0.0-7.0-0.7","91548","400877","highRank"
"9","1","9","false","context","worst","context","5","1070","bandit","bandit-task","16","349417","0.0-7.0-0.8","91548","400877","highRank"
"10","1","10","false","context","worst","context","100","2144","bandit","bandit-task","17","354529","0.0-7.0-0.9","91548","400877","highRank"
"11","1","11","false","worst","context","context","100","3530","bandit","bandit-task","18","360896","0.0-7.0-0.10","91548","400877","highRank"
"12","1","12","false","context","worst","context","43","1866","bandit","bandit-task","19","365487","0.0-7.0-0.11","91548","400877","highRank"
"13","1","13","false","worst","context","context","1","783","bandit","bandit-task","20","368786","0.0-7.0-0.12","91548","400877","highRank"
"14","1","14","false","context","worst","context","4","784","bandit","bandit-task","21","371906","0.0-7.0-0.13","91548","400877","highRank"
"15","1","15","true","","","risky","30","892","bandit","bandit-task","22","375422","0.0-7.0-0.14","91548","400877","highRank"
"16","1","16","false","worst","context","context","38","1807","bandit","bandit-task","23","379927","0.0-7.0-0.15","91548","400877","highRank"
"17","1","17","false","context","worst","context","15","782","bandit","bandit-task","24","383402","0.0-7.0-0.16","91548","400877","highRank"
"18","1","18","false","context","worst","worst","0","895","bandit","bandit-task","25","386951","0.0-7.0-0.17","91548","400877","highRank"
"19","1","19","false","safe","risky","safe","50","1216","bandit","bandit-task","26","390813","0.0-7.0-0.18","91548","400877","highRank"
"20","1","20","false","risky","safe","safe","50","871","bandit","bandit-task","27","394384","0.0-7.0-0.19","91548","400877","highRank"
"21","1","21","false","context","worst","context","37","993","bandit","bandit-task","28","398398","0.0-7.0-0.20","91548","400877","highRank"
"22","1","22","false","safe","risky","safe","50","808","bandit","bandit-task","29","401856","0.0-7.0-0.21","91548","400877","highRank"
"23","1","23","false","worst","context","context","9","907","bandit","bandit-task","30","405854","0.0-7.0-0.22","91548","400877","highRank"
"24","1","24","false","context","worst","context","64","843","bandit","bandit-task","31","409354","0.0-7.0-0.23","91548","400877","highRank"
"25","1","25","true","","","worst","0","912","bandit","bandit-task","32","412838","0.0-7.0-0.24","91548","400877","highRank"
"26","1","26","true","","","context","100","808","bandit","bandit-task","33","416034","0.0-7.0-0.25","91548","400877","highRank"
"27","1","27","false","worst","context","context","100","830","bandit","bandit-task","34","419626","0.0-7.0-0.26","91548","400877","highRank"
"28","1","28","false","worst","context","context","100","707","bandit","bandit-task","35","422887","0.0-7.0-0.27","91548","400877","highRank"
"29","1","29","false","context","worst","context","100","814","bandit","bandit-task","36","426366","0.0-7.0-0.28","91548","400877","highRank"
"30","1","30","true","","","safe","50","796","bandit","bandit-task","37","429406","0.0-7.0-0.29","91548","400877","highRank"
"31","1","31","false","safe","risky","safe","50","751","bandit","bandit-task","38","432361","0.0-7.0-0.30","91548","400877","highRank"
"32","1","32","false","context","worst","context","100","728","bandit","bandit-task","39","435795","0.0-7.0-0.31","91548","400877","highRank"
"33","1","33","false","risky","safe","safe","50","881","bandit","bandit-task","40","439205","0.0-7.0-0.32","91548","400877","highRank"
"34","1","34","false","worst","context","context","13","1011","bandit","bandit-task","41","445284","0.0-7.0-0.33","91548","400877","highRank"
"35","1","35","false","context","worst","context","55","752","bandit","bandit-task","42","448641","0.0-7.0-0.34","91548","400877","highRank"
"36","1","36","true","","","worst","0","951","bandit","bandit-task","43","452017","0.0-7.0-0.35","91548","400877","highRank"
"37","1","37","false","safe","risky","safe","50","949","bandit","bandit-task","44","455777","0.0-7.0-0.36","91548","400877","highRank"
"38","1","38","false","worst","context","context","35","892","bandit","bandit-task","45","459354","0.0-7.0-0.37","91548","400877","highRank"
"39","1","39","false","context","worst","context","20","792","bandit","bandit-task","46","462984","0.0-7.0-0.38","91548","400877","highRank"
"40","1","40","false","safe","risky","safe","50","935","bandit","bandit-task","47","466588","0.0-7.0-0.39","91548","400877","highRank"
"41","1","41","false","worst","context","context","8","925","bandit","bandit-task","48","471067","0.0-7.0-0.40","91548","400877","highRank"
"42","1","42","false","worst","context","context","44","1296","bandit","bandit-task","49","475211","0.0-7.0-0.41","91548","400877","highRank"
"43","1","43","true","","","context","3","815","bandit","bandit-task","50","478654","0.0-7.0-0.42","91548","400877","highRank"
"44","1","44","false","risky","safe","safe","50","855","bandit","bandit-task","51","482173","0.0-7.0-0.43","91548","400877","highRank"
"45","2","1","false","safe","risky","safe","50","1601","bandit","bandit-task","53","578956","0.0-9.0-0.0","91548","400877","highRank"
"46","2","2","true","","","safe","50","789","bandit","bandit-task","54","582294","0.0-9.0-0.1","91548","400877","highRank"
"47","2","3","false","risky","safe","safe","50","1298","bandit","bandit-task","55","586246","0.0-9.0-0.2","91548","400877","highRank"
"48","2","4","false","safe","risky","risky","30","1052","bandit","bandit-task","56","589906","0.0-9.0-0.3","91548","400877","highRank"
"49","2","5","false","worst","context","context","57","997","bandit","bandit-task","57","593950","0.0-9.0-0.4","91548","400877","highRank"
"50","2","6","true","","","risky","70","711","bandit","bandit-task","58","597306","0.0-9.0-0.5","91548","400877","highRank"
"51","2","7","false","worst","context","context","56","845","bandit","bandit-task","59","600534","0.0-9.0-0.6","91548","400877","highRank"
"52","2","8","false","risky","safe","risky","70","805","bandit","bandit-task","60","603717","0.0-9.0-0.7","91548","400877","highRank"
"53","2","9","false","worst","context","context","100","762","bandit","bandit-task","61","607626","0.0-9.0-0.8","91548","400877","highRank"
"54","2","10","false","worst","context","context","2","843","bandit","bandit-task","62","611191","0.0-9.0-0.9","91548","400877","highRank"
"55","2","11","false","worst","context","worst","0","1974","bandit","bandit-task","63","615918","0.0-9.0-0.10","91548","400877","highRank"
"56","2","12","false","context","worst","context","40","811","bandit","bandit-task","64","619114","0.0-9.0-0.11","91548","400877","highRank"
"57","2","13","false","worst","context","context","58","804","bandit","bandit-task","65","622557","0.0-9.0-0.12","91548","400877","highRank"
"58","2","14","false","worst","context","context","42","760","bandit","bandit-task","66","626779","0.0-9.0-0.13","91548","400877","highRank"
"59","2","15","true","","","risky","70","783","bandit","bandit-task","67","630298","0.0-9.0-0.14","91548","400877","highRank"
"60","2","16","false","worst","context","context","100","1356","bandit","bandit-task","68","634385","0.0-9.0-0.15","91548","400877","highRank"
"61","2","17","false","context","worst","context","12","1035","bandit","bandit-task","69","637853","0.0-9.0-0.16","91548","400877","highRank"
"62","2","18","false","worst","context","context","100","687","bandit","bandit-task","70","641272","0.0-9.0-0.17","91548","400877","highRank"
"63","2","19","false","safe","risky","risky","30","1584","bandit","bandit-task","71","645109","0.0-9.0-0.18","91548","400877","highRank"
"64","2","20","false","safe","risky","risky","30","703","bandit","bandit-task","72","648032","0.0-9.0-0.19","91548","400877","highRank"
"65","2","21","false","context","worst","context","6","784","bandit","bandit-task","73","651600","0.0-9.0-0.20","91548","400877","highRank"
"66","2","22","false","risky","safe","safe","50","1142","bandit","bandit-task","74","655127","0.0-9.0-0.21","91548","400877","highRank"
"67","2","23","false","context","worst","context","100","766","bandit","bandit-task","75","658786","0.0-9.0-0.22","91548","400877","highRank"
"68","2","24","false","worst","context","worst","0","1425","bandit","bandit-task","76","662737","0.0-9.0-0.23","91548","400877","highRank"
"69","2","25","true","","","worst","0","677","bandit","bandit-task","77","665785","0.0-9.0-0.24","91548","400877","highRank"
"70","2","26","true","","","context","10","744","bandit","bandit-task","78","668906","0.0-9.0-0.25","91548","400877","highRank"
"71","2","27","false","context","worst","context","100","939","bandit","bandit-task","79","672415","0.0-9.0-0.26","91548","400877","highRank"
"72","2","28","false","worst","context","context","36","678","bandit","bandit-task","80","675321","0.0-9.0-0.27","91548","400877","highRank"
"73","2","29","false","context","worst","context","41","720","bandit","bandit-task","81","678766","0.0-9.0-0.28","91548","400877","highRank"
"74","2","30","true","","","safe","50","735","bandit","bandit-task","82","681870","0.0-9.0-0.29","91548","400877","highRank"
"75","2","31","false","risky","safe","safe","50","643","bandit","bandit-task","83","684890","0.0-9.0-0.30","91548","400877","highRank"
"76","2","32","false","context","worst","context","100","1047","bandit","bandit-task","84","688286","0.0-9.0-0.31","91548","400877","highRank"
"77","2","33","false","safe","risky","safe","50","870","bandit","bandit-task","85","691553","0.0-9.0-0.32","91548","400877","highRank"
"78","2","34","false","worst","context","context","63","911","bandit","bandit-task","86","695600","0.0-9.0-0.33","91548","400877","highRank"
"79","2","35","false","context","worst","context","100","623","bandit","bandit-task","87","699103","0.0-9.0-0.34","91548","400877","highRank"
"80","2","36","true","","","worst","0","908","bandit","bandit-task","88","702387","0.0-9.0-0.35","91548","400877","highRank"
"81","2","37","false","risky","safe","safe","50","1249","bandit","bandit-task","89","705985","0.0-9.0-0.36","91548","400877","highRank"
"82","2","38","false","context","worst","context","16","557","bandit","bandit-task","90","708915","0.0-9.0-0.37","91548","400877","highRank"
"83","2","39","false","context","worst","context","11","694","bandit","bandit-task","91","711951","0.0-9.0-0.38","91548","400877","highRank"
"84","2","40","false","safe","risky","safe","50","918","bandit","bandit-task","92","715569","0.0-9.0-0.39","91548","400877","highRank"
"85","2","41","false","context","worst","context","100","1266","bandit","bandit-task","93","719445","0.0-9.0-0.40","91548","400877","highRank"
"86","2","42","false","worst","context","context","14","782","bandit","bandit-task","94","723307","0.0-9.0-0.41","91548","400877","highRank"
"87","2","43","true","","","context","19","687","bandit","bandit-task","95","726375","0.0-9.0-0.42","91548","400877","highRank"
"88","2","44","false","risky","safe","safe","50","1377","bandit","bandit-task","96","730251","0.0-9.0-0.43","91548","400877","highRank"
"89","3","1","false","risky","safe","safe","50","1614","bandit","bandit-task","98","735605","0.0-11.0-0.0","91548","400877","highRank"
"90","3","2","true","","","safe","50","612","bandit","bandit-task","99","738720","0.0-11.0-0.1","91548","400877","highRank"
"91","3","3","false","risky","safe","safe","50","912","bandit","bandit-task","100","742514","0.0-11.0-0.2","91548","400877","highRank"
"92","3","4","false","safe","risky","safe","50","720","bandit","bandit-task","101","745788","0.0-11.0-0.3","91548","400877","highRank"
"93","3","5","false","context","worst","context","18","930","bandit","bandit-task","102","748841","0.0-11.0-0.4","91548","400877","highRank"
"94","3","6","true","","","risky","70","870","bandit","bandit-task","103","752115","0.0-11.0-0.5","91548","400877","highRank"
"95","3","7","false","context","worst","context","59","767","bandit","bandit-task","104","755350","0.0-11.0-0.6","91548","400877","highRank"
"96","3","8","false","safe","risky","safe","50","822","bandit","bandit-task","105","758568","0.0-11.0-0.7","91548","400877","highRank"
"97","3","9","false","worst","context","context","60","872","bandit","bandit-task","106","762082","0.0-11.0-0.8","91548","400877","highRank"
"98","3","10","false","worst","context","context","45","797","bandit","bandit-task","107","765318","0.0-11.0-0.9","91548","400877","highRank"
"99","3","11","false","context","worst","context","61","654","bandit","bandit-task","108","768152","0.0-11.0-0.10","91548","400877","highRank"
"100","3","12","false","worst","context","context","100","1153","bandit","bandit-task","109","771682","0.0-11.0-0.11","91548","400877","highRank"
"101","3","13","false","worst","context","context","100","738","bandit","bandit-task","110","774803","0.0-11.0-0.12","91548","400877","highRank"
"102","3","14","false","worst","context","context","17","655","bandit","bandit-task","111","777825","0.0-11.0-0.13","91548","400877","highRank"
"103","3","15","true","","","risky","30","757","bandit","bandit-task","112","781491","0.0-11.0-0.14","91548","400877","highRank"
"104","3","16","false","context","worst","context","100","840","bandit","bandit-task","113","784872","0.0-11.0-0.15","91548","400877","highRank"
"105","3","17","false","worst","context","context","100","710","bandit","bandit-task","114","788135","0.0-11.0-0.16","91548","400877","highRank"
"106","3","18","false","context","worst","worst","0","923","bandit","bandit-task","115","791894","0.0-11.0-0.17","91548","400877","highRank"
"107","3","19","false","risky","safe","safe","50","1329","bandit","bandit-task","116","795818","0.0-11.0-0.18","91548","400877","highRank"
"108","3","20","false","risky","safe","safe","50","797","bandit","bandit-task","117","798998","0.0-11.0-0.19","91548","400877","highRank"
"109","3","21","false","worst","context","context","100","862","bandit","bandit-task","118","802217","0.0-11.0-0.20","91548","400877","highRank"
"110","3","22","false","risky","safe","safe","50","863","bandit","bandit-task","119","805450","0.0-11.0-0.21","91548","400877","highRank"
"111","3","23","false","context","worst","context","15","784","bandit","bandit-task","120","808627","0.0-11.0-0.22","91548","400877","highRank"
"112","3","24","false","context","worst","context","16","631","bandit","bandit-task","121","811615","0.0-11.0-0.23","91548","400877","highRank"
"113","3","25","true","","","worst","0","695","bandit","bandit-task","122","815183","0.0-11.0-0.24","91548","400877","highRank"
"114","3","26","true","","","context","39","594","bandit","bandit-task","123","818019","0.0-11.0-0.25","91548","400877","highRank"
"115","3","27","false","context","worst","context","100","684","bandit","bandit-task","124","821318","0.0-11.0-0.26","91548","400877","highRank"
"116","3","28","false","worst","context","context","7","669","bandit","bandit-task","125","824520","0.0-11.0-0.27","91548","400877","highRank"
"117","3","29","false","context","worst","context","64","638","bandit","bandit-task","126","827712","0.0-11.0-0.28","91548","400877","highRank"
"118","3","30","true","","","safe","50","654","bandit","bandit-task","127","831039","0.0-11.0-0.29","91548","400877","highRank"
"119","3","31","false","safe","risky","safe","50","820","bandit","bandit-task","128","834474","0.0-11.0-0.30","91548","400877","highRank"
"120","3","32","false","worst","context","context","100","719","bandit","bandit-task","129","837880","0.0-11.0-0.31","91548","400877","highRank"
"121","3","33","false","safe","risky","safe","50","598","bandit","bandit-task","130","841220","0.0-11.0-0.32","91548","400877","highRank"
"122","3","34","false","worst","context","context","11","606","bandit","bandit-task","131","844205","0.0-11.0-0.33","91548","400877","highRank"
"123","3","35","false","context","worst","context","65","602","bandit","bandit-task","132","847762","0.0-11.0-0.34","91548","400877","highRank"
"124","3","36","true","","","worst","0","1500","bandit","bandit-task","133","851874","0.0-11.0-0.35","91548","400877","highRank"
"125","3","37","false","safe","risky","safe","50","1517","bandit","bandit-task","134","855929","0.0-11.0-0.36","91548","400877","highRank"
"126","3","38","false","context","worst","context","100","1073","bandit","bandit-task","135","859654","0.0-11.0-0.37","91548","400877","highRank"
"127","3","39","false","context","worst","context","55","742","bandit","bandit-task","136","862938","0.0-11.0-0.38","91548","400877","highRank"
"128","3","40","false","risky","safe","safe","50","841","bandit","bandit-task","137","866495","0.0-11.0-0.39","91548","400877","highRank"
"129","3","41","false","context","worst","context","4","622","bandit","bandit-task","138","869643","0.0-11.0-0.40","91548","400877","highRank"
"130","3","42","false","worst","context","context","59","679","bandit","bandit-task","139","873123","0.0-11.0-0.41","91548","400877","highRank"
"131","3","43","true","","","context","6","574","bandit","bandit-task","140","876139","0.0-11.0-0.42","91548","400877","highRank"
"132","3","44","false","risky","safe","safe","50","2927","bandit","bandit-task","141","882048","0.0-11.0-0.43","91548","400877","highRank"
"133","4","1","false","safe","risky","safe","50","1395","bandit","bandit-task","143","1128230","0.0-13.0-0.0","91548","400877","highRank"
"134","4","2","true","","","safe","50","610","bandit","bandit-task","144","1131540","0.0-13.0-0.1","91548","400877","highRank"
"135","4","3","false","safe","risky","safe","50","707","bandit","bandit-task","145","1134680","0.0-13.0-0.2","91548","400877","highRank"
"136","4","4","false","safe","risky","safe","50","615","bandit","bandit-task","146","1137689","0.0-13.0-0.3","91548","400877","highRank"
"137","4","5","false","context","worst","context","44","1329","bandit","bandit-task","147","1141583","0.0-13.0-0.4","91548","400877","highRank"
"138","4","6","true","","","risky","30","881","bandit","bandit-task","148","1145018","0.0-13.0-0.5","91548","400877","highRank"
"139","4","7","false","context","worst","context","45","670","bandit","bandit-task","149","1148336","0.0-13.0-0.6","91548","400877","highRank"
"140","4","8","false","risky","safe","safe","50","700","bandit","bandit-task","150","1151693","0.0-13.0-0.7","91548","400877","highRank"
"141","4","9","false","context","worst","context","100","891","bandit","bandit-task","151","1155279","0.0-13.0-0.8","91548","400877","highRank"
"142","4","10","false","worst","context","context","100","1528","bandit","bandit-task","152","1159681","0.0-13.0-0.9","91548","400877","highRank"
"143","4","11","false","context","worst","context","20","630","bandit","bandit-task","153","1163070","0.0-13.0-0.10","91548","400877","highRank"
"144","4","12","false","worst","context","context","40","779","bandit","bandit-task","154","1166989","0.0-13.0-0.11","91548","400877","highRank"
"145","4","13","false","worst","context","context","100","724","bandit","bandit-task","155","1170300","0.0-13.0-0.12","91548","400877","highRank"
"146","4","14","false","context","worst","context","100","690","bandit","bandit-task","156","1173434","0.0-13.0-0.13","91548","400877","highRank"
"147","4","15","true","","","risky","30","732","bandit","bandit-task","157","1176741","0.0-13.0-0.14","91548","400877","highRank"
"148","4","16","false","worst","context","context","18","830","bandit","bandit-task","158","1179974","0.0-13.0-0.15","91548","400877","highRank"
"149","4","17","false","worst","context","context","14","770","bandit","bandit-task","159","1183401","0.0-13.0-0.16","91548","400877","highRank"
"150","4","18","false","worst","context","context","100","695","bandit","bandit-task","160","1186646","0.0-13.0-0.17","91548","400877","highRank"
"151","4","19","false","risky","safe","safe","50","750","bandit","bandit-task","161","1189825","0.0-13.0-0.18","91548","400877","highRank"
"152","4","20","false","safe","risky","safe","50","961","bandit","bandit-task","162","1193204","0.0-13.0-0.19","91548","400877","highRank"
"153","4","21","false","context","worst","context","100","1010","bandit","bandit-task","163","1196608","0.0-13.0-0.20","91548","400877","highRank"
"154","4","22","false","safe","risky","safe","50","734","bandit","bandit-task","164","1199886","0.0-13.0-0.21","91548","400877","highRank"
"155","4","23","false","context","worst","context","8","813","bandit","bandit-task","165","1203090","0.0-13.0-0.22","91548","400877","highRank"
"156","4","24","false","context","worst","context","60","613","bandit","bandit-task","166","1206316","0.0-13.0-0.23","91548","400877","highRank"
"157","4","25","true","","","worst","0","758","bandit","bandit-task","167","1210156","0.0-13.0-0.24","91548","400877","highRank"
"158","4","26","true","","","context","41","598","bandit","bandit-task","168","1213188","0.0-13.0-0.25","91548","400877","highRank"
"159","4","27","false","context","worst","context","13","635","bandit","bandit-task","169","1216216","0.0-13.0-0.26","91548","400877","highRank"
"160","4","28","false","context","worst","context","5","653","bandit","bandit-task","170","1219238","0.0-13.0-0.27","91548","400877","highRank"
"161","4","29","false","worst","context","context","100","692","bandit","bandit-task","171","1222825","0.0-13.0-0.28","91548","400877","highRank"
"162","4","30","true","","","safe","50","645","bandit","bandit-task","172","1226371","0.0-13.0-0.29","91548","400877","highRank"
"163","4","31","false","safe","risky","safe","50","674","bandit","bandit-task","173","1229924","0.0-13.0-0.30","91548","400877","highRank"
"164","4","32","false","worst","context","context","56","898","bandit","bandit-task","174","1234229","0.0-13.0-0.31","91548","400877","highRank"
"165","4","33","false","risky","safe","safe","50","757","bandit","bandit-task","175","1237352","0.0-13.0-0.32","91548","400877","highRank"
"166","4","34","false","worst","context","context","100","853","bandit","bandit-task","176","1240939","0.0-13.0-0.33","91548","400877","highRank"
"167","4","35","false","context","worst","context","3","693","bandit","bandit-task","177","1244530","0.0-13.0-0.34","91548","400877","highRank"
"168","4","36","true","","","worst","0","669","bandit","bandit-task","178","1248868","0.0-13.0-0.35","91548","400877","highRank"
"169","4","37","false","risky","safe","safe","50","821","bandit","bandit-task","179","1252755","0.0-13.0-0.36","91548","400877","highRank"
"170","4","38","false","context","worst","context","63","1061","bandit","bandit-task","180","1256360","0.0-13.0-0.37","91548","400877","highRank"
"171","4","39","false","worst","context","context","100","692","bandit","bandit-task","181","1259588","0.0-13.0-0.38","91548","400877","highRank"
"172","4","40","false","risky","safe","safe","50","1078","bandit","bandit-task","182","1263811","0.0-13.0-0.39","91548","400877","highRank"
"173","4","41","false","context","worst","context","7","790","bandit","bandit-task","183","1267389","0.0-13.0-0.40","91548","400877","highRank"
"174","4","42","false","context","worst","context","2","633","bandit","bandit-task","184","1270400","0.0-13.0-0.41","91548","400877","highRank"
"175","4","43","true","","","context","58","615","bandit","bandit-task","185","1273708","0.0-13.0-0.42","91548","400877","highRank"
"176","4","44","false","safe","risky","safe","50","1016","bandit","bandit-task","186","1277166","0.0-13.0-0.43","91548","400877","highRank"
"177","5","1","false","risky","safe","safe","50","4057","bandit","bandit-task","188","1439371","0.0-15.0-0.0","91548","400877","highRank"
"178","5","2","true","","","safe","50","14721","bandit","bandit-task","189","1462158","0.0-15.0-0.1","91548","400877","highRank"
"179","5","3","false","risky","safe","safe","50","8816","bandit","bandit-task","190","1475224","0.0-15.0-0.2","91548","400877","highRank"
"180","5","4","false","risky","safe","safe","50","2666","bandit","bandit-task","191","1480631","0.0-15.0-0.3","91548","400877","highRank"
"181","5","5","false","worst","context","context","37","1522","bandit","bandit-task","192","1485241","0.0-15.0-0.4","91548","400877","highRank"
"182","5","6","true","","","risky","70","1461","bandit","bandit-task","193","1489639","0.0-15.0-0.5","91548","400877","highRank"
"183","5","7","false","worst","context","context","100","876","bandit","bandit-task","194","1493096","0.0-15.0-0.6","91548","400877","highRank"
"184","5","8","false","safe","risky","safe","50","1678","bandit","bandit-task","195","1497170","0.0-15.0-0.7","91548","400877","highRank"
"185","5","9","false","worst","context","context","100","671","bandit","bandit-task","196","1500373","0.0-15.0-0.8","91548","400877","highRank"
"186","5","10","false","worst","context","context","100","1028","bandit","bandit-task","197","1503796","0.0-15.0-0.9","91548","400877","highRank"
"187","5","11","false","worst","context","context","36","666","bandit","bandit-task","198","1506840","0.0-15.0-0.10","91548","400877","highRank"
"188","5","12","false","context","worst","context","10","712","bandit","bandit-task","199","1509934","0.0-15.0-0.11","91548","400877","highRank"
"189","5","13","false","context","worst","context","100","892","bandit","bandit-task","200","1513283","0.0-15.0-0.12","91548","400877","highRank"
"190","5","14","false","context","worst","context","19","595","bandit","bandit-task","201","1516240","0.0-15.0-0.13","91548","400877","highRank"
"191","5","15","true","","","risky","70","715","bandit","bandit-task","202","1519316","0.0-15.0-0.14","91548","400877","highRank"
"192","5","16","false","context","worst","context","61","941","bandit","bandit-task","203","1522767","0.0-15.0-0.15","91548","400877","highRank"
"193","5","17","false","context","worst","context","42","726","bandit","bandit-task","204","1525827","0.0-15.0-0.16","91548","400877","highRank"
"194","5","18","false","worst","context","context","9","846","bandit","bandit-task","205","1529078","0.0-15.0-0.17","91548","400877","highRank"
"195","5","19","false","safe","risky","risky","30","1024","bandit","bandit-task","206","1532377","0.0-15.0-0.18","91548","400877","highRank"
"196","5","20","false","safe","risky","safe","50","720","bandit","bandit-task","207","1535554","0.0-15.0-0.19","91548","400877","highRank"
"197","5","21","false","worst","context","context","38","613","bandit","bandit-task","208","1538502","0.0-15.0-0.20","91548","400877","highRank"
"198","5","22","false","safe","risky","safe","50","1040","bandit","bandit-task","209","1542252","0.0-15.0-0.21","91548","400877","highRank"
"199","5","23","false","context","worst","context","1","725","bandit","bandit-task","210","1545133","0.0-15.0-0.22","91548","400877","highRank"
"200","5","24","false","context","worst","context","17","723","bandit","bandit-task","211","1548208","0.0-15.0-0.23","91548","400877","highRank"
"201","5","25","true","","","worst","0","667","bandit","bandit-task","212","1551332","0.0-15.0-0.24","91548","400877","highRank"
"202","5","26","true","","","context","100","668","bandit","bandit-task","213","1554631","0.0-15.0-0.25","91548","400877","highRank"
"203","5","27","false","worst","context","context","39","645","bandit","bandit-task","214","1557799","0.0-15.0-0.26","91548","400877","highRank"
"204","5","28","false","worst","context","context","57","686","bandit","bandit-task","215","1560731","0.0-15.0-0.27","91548","400877","highRank"
"205","5","29","false","context","worst","context","100","685","bandit","bandit-task","216","1566203","0.0-15.0-0.28","91548","400877","highRank"
"206","5","30","true","","","safe","50","726","bandit","bandit-task","217","1569383","0.0-15.0-0.29","91548","400877","highRank"
"207","5","31","false","risky","safe","safe","50","644","bandit","bandit-task","218","1572945","0.0-15.0-0.30","91548","400877","highRank"
"208","5","32","false","context","worst","context","100","645","bandit","bandit-task","219","1575937","0.0-15.0-0.31","91548","400877","highRank"
"209","5","33","false","safe","risky","safe","50","793","bandit","bandit-task","220","1579109","0.0-15.0-0.32","91548","400877","highRank"
"210","5","34","false","context","worst","context","12","701","bandit","bandit-task","221","1581897","0.0-15.0-0.33","91548","400877","highRank"
"211","5","35","false","worst","context","context","65","756","bandit","bandit-task","222","1585011","0.0-15.0-0.34","91548","400877","highRank"
"212","5","36","true","","","worst","0","693","bandit","bandit-task","223","1587772","0.0-15.0-0.35","91548","400877","highRank"
"213","5","37","false","risky","safe","safe","50","741","bandit","bandit-task","224","1590878","0.0-15.0-0.36","91548","400877","highRank"
"214","5","38","false","worst","context","context","62","1118","bandit","bandit-task","225","1594498","0.0-15.0-0.37","91548","400877","highRank"
"215","5","39","false","worst","context","context","100","653","bandit","bandit-task","226","1598127","0.0-15.0-0.38","91548","400877","highRank"
"216","5","40","false","risky","safe","safe","50","589","bandit","bandit-task","227","1601146","0.0-15.0-0.39","91548","400877","highRank"
"217","5","41","false","context","worst","context","100","1511","bandit","bandit-task","228","1605328","0.0-15.0-0.40","91548","400877","highRank"
"218","5","42","false","context","worst","context","35","574","bandit","bandit-task","229","1608657","0.0-15.0-0.41","91548","400877","highRank"
"219","5","43","true","","","context","100","608","bandit","bandit-task","230","1611524","0.0-15.0-0.42","91548","400877","highRank"
"220","5","44","false","risky","safe","safe","50","1457","bandit","bandit-task","231","1615464","0.0-15.0-0.43","91548","400877","highRank"
