"banditTrial","block","trialInBlock","singleOption","leftOption","rightOption","choice","feedback","rt","task","trial_type","trial_index","time_elapsed","internal_node_id","participant","turkCode","condition"
"1","1","1","false","worst","context","context","93","1698","bandit","bandit-task","8","107988","0.0-7.0-0.0","11193","291232","lowRank"
"2","1","2","false","worst","context","worst","0","693","bandit","bandit-task","9","111604","0.0-7.0-0.1","11193","291232","lowRank"
"3","1","3","true","","","risky","70","974","bandit","bandit-task","10","115300","0.0-7.0-0.2","11193","291232","lowRank"
"4","1","4","false","safe","risky","safe","50","590","bandit","bandit-task","11","118459","0.0-7.0-0.3","11193","291232","lowRank"
"5","1","5","false","worst","context","worst","0","589","bandit","bandit-task","12","121667","0.0-7.0-0.4","11193","291232","lowRank"
"6","1","6","false","context","worst","context","1","1094","bandit","bandit-task","13","125244","0.0-7.0-0.5","11193","291232","lowRank"
"7","1","7","false","worst","context","worst","0","773","bandit","bandit-task","14","128451","0.0-7.0-0.6","11193","291232","lowRank"
"8","1","8","false","worst","context","context","86","580","bandit","bandit-task","15","131507","0.0-7.0-0.7","11193","291232","lowRank"
"9","1","9","false","context","worst","context","58","670","bandit","bandit-task","16","134660","0.0-7.0-0.8","11193","291232","lowRank"
"10","1","10","false","context","worst","context","56","677","bandit","bandit-task","17","137859","0.0-7.0-0.9","11193","291232","lowRank"
"11","1","11","false","safe","risky","safe","50","837","bandit","bandit-task","18","141219","0.0-7.0-0.10","11193","291232","lowRank"
"12","1","12","false","safe","risky","safe","50","773","bandit","bandit-task","19","144444","0.0-7.0-0.11","11193","291232","lowRank"
"13","1","13","true","","","risky","70","533","bandit","bandit-task","20","147403","0.0-7.0-0.12","11193","291232","lowRank"
"14","1","14","false","worst","context","worst","0","653","bandit","bandit-task","21","150460","0.0-7.0-0.13","11193","291232","lowRank"
"15","1","15","false","worst","context","context","1","549","bandit","bandit-task","22","153420","0.0-7.0-0.14","11193","291232","lowRank"
"16","1","16","true","","","worst","0","477","bandit","bandit-task","23","156315","0.0-7.0-0.15","11193","291232","lowRank"
"17","1","17","true","","","context","99","581","bandit","bandit-task","24","159307","0.0-7.0-0.16","11193","291232","lowRank"
"18","1","18","false","worst","context","context","39","493","bandit","bandit-task","25","162364","0.0-7.0-0.17","11193","291232","lowRank"
"19","1","19","false","worst","context","worst","0","509","bandit","bandit-task","26","165235","0.0-7.0-0.18","11193","291232","lowRank"
"20","1","20","false","worst","context","context","42","494","bandit","bandit-task","27","168139","0.0-7.0-0.19","11193","291232","lowRank"
"21","1","21","false","risky","safe","risky","30","725","bandit","bandit-task","28","171267","0.0-7.0-0.20","11193","291232","lowRank"
"22","1","22","false","context","worst","context","94","798","bandit","bandit-task","29","174483","0.0-7.0-0.21","11193","291232","lowRank"
"23","1","23","true","","","worst","0","550","bandit","bandit-task","30","177532","0.0-7.0-0.22","11193","291232","lowRank"
"24","1","24","false","worst","context","context","1","846","bandit","bandit-task","31","180764","0.0-7.0-0.23","11193","291232","lowRank"
"25","1","25","false","context","worst","context","84","565","bandit","bandit-task","32","183700","0.0-7.0-0.24","11193","291232","lowRank"
"26","1","26","false","worst","context","context","83","710","bandit","bandit-task","33","186781","0.0-7.0-0.25","11193","291232","lowRank"
"27","1","27","false","risky","safe","safe","50","811","bandit","bandit-task","34","189972","0.0-7.0-0.26","11193","291232","lowRank"
"28","1","28","false","worst","context","context","44","622","bandit","bandit-task","35","192956","0.0-7.0-0.27","11193","291232","lowRank"
"29","1","29","true","","","safe","50","486","bandit","bandit-task","36","195860","0.0-7.0-0.28","11193","291232","lowRank"
"30","1","30","false","context","worst","context","1","822","bandit","bandit-task","37","199148","0.0-7.0-0.29","11193","291232","lowRank"
"31","1","31","false","worst","context","context","1","565","bandit","bandit-task","38","202124","0.0-7.0-0.30","11193","291232","lowRank"
"32","1","32","false","worst","context","context","1","613","bandit","bandit-task","39","205092","0.0-7.0-0.31","11193","291232","lowRank"
"33","1","33","false","worst","context","context","57","581","bandit","bandit-task","40","208252","0.0-7.0-0.32","11193","291232","lowRank"
"34","1","34","true","","","safe","50","550","bandit","bandit-task","41","211580","0.0-7.0-0.33","11193","291232","lowRank"
"35","1","35","false","risky","safe","risky","70","846","bandit","bandit-task","42","214933","0.0-7.0-0.34","11193","291232","lowRank"
"36","1","36","false","worst","context","context","1","669","bandit","bandit-task","43","217932","0.0-7.0-0.35","11193","291232","lowRank"
"37","1","37","false","risky","safe","risky","30","653","bandit","bandit-task","44","220932","0.0-7.0-0.36","11193","291232","lowRank"
"38","1","38","false","context","worst","context","87","725","bandit","bandit-task","45","224204","0.0-7.0-0.37","11193","291232","lowRank"
"39","1","39","false","risky","safe","risky","70","638","bandit","bandit-task","46","227244","0.0-7.0-0.38","11193","291232","lowRank"
"40","1","40","false","safe","risky","risky","70","1190","bandit","bandit-task","47","230964","0.0-7.0-0.39","11193","291232","lowRank"
"41","1","41","true","","","context","1","573","bandit","bandit-task","48","233924","0.0-7.0-0.40","11193","291232","lowRank"
"42","1","42","false","risky","safe","safe","50","718","bandit","bandit-task","49","237004","0.0-7.0-0.41","11193","291232","lowRank"
"43","1","43","false","safe","risky","risky","70","733","bandit","bandit-task","50","240324","0.0-7.0-0.42","11193","291232","lowRank"
"44","1","44","false","safe","risky","safe","50","734","bandit","bandit-task","51","243404","0.0-7.0-0.43","11193","291232","lowRank"
"45","2","1","false","context","worst","context","37","759","bandit","bandit-task","53","249308","0.0-9.0-0.0","11193","291232","lowRank"
"46","2","2","false","worst","context","context","100","550","bandit","bandit-task","54","252220","0.0-9.0-0.1","11193","291232","lowRank"
"47","2","3","true","","","risky","70","533","bandit","bandit-task","55","255116","0.0-9.0-0.2","11193","291232","lowRank"
"48","2","4","false","risky","safe","safe","50","502","bandit","bandit-task","56","258028","0.0-9.0-0.3","11193","291232","lowRank"
"49","2","5","false","context","worst","context","36","637","bandit","bandit-task","57","261012","0.0-9.0-0.4","11193","291232","lowRank"
"50","2","6","false","context","worst","worst","0","501","bandit","bandit-task","58","263892","0.0-9.0-0.5","11193","291232","lowRank"
"51","2","7","false","worst","context","context","55","798","bandit","bandit-task","59","267028","0.0-9.0-0.6","11193","291232","lowRank"
"52","2","8","false","context","worst","context","62","509","bandit","bandit-task","60","269852","0.0-9.0-0.7","11193","291232","lowRank"
"53","2","9","false","worst","context","context","1","526","bandit","bandit-task","61","272748","0.0-9.0-0.8","11193","291232","lowRank"
"54","2","10","false","context","worst","context","91","621","bandit","bandit-task","62","275781","0.0-9.0-0.9","11193","291232","lowRank"
"55","2","11","false","safe","risky","risky","70","629","bandit","bandit-task","63","278764","0.0-9.0-0.10","11193","291232","lowRank"
"56","2","12","false","safe","risky","risky","70","525","bandit","bandit-task","64","281660","0.0-9.0-0.11","11193","291232","lowRank"
"57","2","13","true","","","risky","30","534","bandit","bandit-task","65","285076","0.0-9.0-0.12","11193","291232","lowRank"
"58","2","14","false","context","worst","context","1","949","bandit","bandit-task","66","288396","0.0-9.0-0.13","11193","291232","lowRank"
"59","2","15","false","context","worst","context","1","653","bandit","bandit-task","67","291636","0.0-9.0-0.14","11193","291232","lowRank"
"60","2","16","true","","","worst","0","534","bandit","bandit-task","68","294532","0.0-9.0-0.15","11193","291232","lowRank"
"61","2","17","true","","","context","96","550","bandit","bandit-task","69","297420","0.0-9.0-0.16","11193","291232","lowRank"
"62","2","18","false","worst","context","worst","0","789","bandit","bandit-task","70","300572","0.0-9.0-0.17","11193","291232","lowRank"
"63","2","19","false","worst","context","context","59","565","bandit","bandit-task","71","303476","0.0-9.0-0.18","11193","291232","lowRank"
"64","2","20","false","context","worst","context","45","550","bandit","bandit-task","72","306364","0.0-9.0-0.19","11193","291232","lowRank"
"65","2","21","false","safe","risky","safe","50","853","bandit","bandit-task","73","309820","0.0-9.0-0.20","11193","291232","lowRank"
"66","2","22","false","worst","context","context","82","693","bandit","bandit-task","74","312845","0.0-9.0-0.21","11193","291232","lowRank"
"67","2","23","true","","","worst","0","557","bandit","bandit-task","75","315740","0.0-9.0-0.22","11193","291232","lowRank"
"68","2","24","false","context","worst","context","98","574","bandit","bandit-task","76","318676","0.0-9.0-0.23","11193","291232","lowRank"
"69","2","25","false","worst","context","context","1","573","bandit","bandit-task","77","321652","0.0-9.0-0.24","11193","291232","lowRank"
"70","2","26","false","worst","context","context","1","1662","bandit","bandit-task","78","325908","0.0-9.0-0.25","11193","291232","lowRank"
"71","2","27","false","risky","safe","risky","70","660","bandit","bandit-task","79","328908","0.0-9.0-0.26","11193","291232","lowRank"
"72","2","28","false","context","worst","context","80","709","bandit","bandit-task","80","331828","0.0-9.0-0.27","11193","291232","lowRank"
"73","2","29","true","","","safe","50","566","bandit","bandit-task","81","334724","0.0-9.0-0.28","11193","291232","lowRank"
"74","2","30","false","worst","context","context","89","573","bandit","bandit-task","82","337485","0.0-9.0-0.29","11193","291232","lowRank"
"75","2","31","false","context","worst","context","1","573","bandit","bandit-task","83","340596","0.0-9.0-0.30","11193","291232","lowRank"
"76","2","32","false","worst","context","context","1","461","bandit","bandit-task","84","343420","0.0-9.0-0.31","11193","291232","lowRank"
"77","2","33","false","context","worst","context","1","542","bandit","bandit-task","85","346308","0.0-9.0-0.32","11193","291232","lowRank"
"78","2","34","true","","","safe","50","494","bandit","bandit-task","86","350196","0.0-9.0-0.33","11193","291232","lowRank"
"79","2","35","false","risky","safe","safe","50","541","bandit","bandit-task","87","353068","0.0-9.0-0.34","11193","291232","lowRank"
"80","2","36","false","context","worst","context","88","549","bandit","bandit-task","88","355972","0.0-9.0-0.35","11193","291232","lowRank"
"81","2","37","false","safe","risky","risky","70","635","bandit","bandit-task","89","359052","0.0-9.0-0.36","11193","291232","lowRank"
"82","2","38","false","worst","context","context","60","789","bandit","bandit-task","90","362188","0.0-9.0-0.37","11193","291232","lowRank"
"83","2","39","false","risky","safe","risky","70","548","bandit","bandit-task","91","365148","0.0-9.0-0.38","11193","291232","lowRank"
"84","2","40","false","safe","risky","risky","70","533","bandit","bandit-task","92","368349","0.0-9.0-0.39","11193","291232","lowRank"
"85","2","41","true","","","context","95","509","bandit","bandit-task","93","371236","0.0-9.0-0.40","11193","291232","lowRank"
"86","2","42","false","risky","safe","safe","50","693","bandit","bandit-task","94","374333","0.0-9.0-0.41","11193","291232","lowRank"
"87","2","43","false","safe","risky","risky","70","533","bandit","bandit-task","95","377204","0.0-9.0-0.42","11193","291232","lowRank"
"88","2","44","false","risky","safe","risky","70","566","bandit","bandit-task","96","380156","0.0-9.0-0.43","11193","291232","lowRank"
"89","3","1","false","context","worst","context","65","750","bandit","bandit-task","98","388340","0.0-11.0-0.0","11193","291232","lowRank"
"90","3","2","false","worst","context","context","40","510","bandit","bandit-task","99","391141","0.0-11.0-0.1","11193","291232","lowRank"
"91","3","3","true","","","risky","30","564","bandit","bandit-task","100","393908","0.0-11.0-0.2","11193","291232","lowRank"
"92","3","4","false","risky","safe","safe","50","573","bandit","bandit-task","101","396828","0.0-11.0-0.3","11193","291232","lowRank"
"93","3","5","false","worst","context","context","38","621","bandit","bandit-task","102","399844","0.0-11.0-0.4","11193","291232","lowRank"
"94","3","6","false","context","worst","context","97","581","bandit","bandit-task","103","402788","0.0-11.0-0.5","11193","291232","lowRank"
"95","3","7","false","worst","context","context","1","517","bandit","bandit-task","104","405965","0.0-11.0-0.6","11193","291232","lowRank"
"96","3","8","false","context","worst","context","61","588","bandit","bandit-task","105","408876","0.0-11.0-0.7","11193","291232","lowRank"
"97","3","9","false","context","worst","context","41","725","bandit","bandit-task","106","412179","0.0-11.0-0.8","11193","291232","lowRank"
"98","3","10","false","worst","context","context","63","526","bandit","bandit-task","107","415092","0.0-11.0-0.9","11193","291232","lowRank"
"99","3","11","false","safe","risky","safe","50","684","bandit","bandit-task","108","418107","0.0-11.0-0.10","11193","291232","lowRank"
"100","3","12","false","risky","safe","safe","50","581","bandit","bandit-task","109","420971","0.0-11.0-0.11","11193","291232","lowRank"
"101","3","13","true","","","risky","30","517","bandit","bandit-task","110","423859","0.0-11.0-0.12","11193","291232","lowRank"
"102","3","14","false","worst","context","context","80","661","bandit","bandit-task","111","426900","0.0-11.0-0.13","11193","291232","lowRank"
"103","3","15","false","context","worst","context","64","637","bandit","bandit-task","112","430515","0.0-11.0-0.14","11193","291232","lowRank"
"104","3","16","true","","","worst","0","605","bandit","bandit-task","113","433828","0.0-11.0-0.15","11193","291232","lowRank"
"105","3","17","true","","","context","90","517","bandit","bandit-task","114","436715","0.0-11.0-0.16","11193","291232","lowRank"
"106","3","18","false","context","worst","context","1","701","bandit","bandit-task","115","440379","0.0-11.0-0.17","11193","291232","lowRank"
"107","3","19","false","context","worst","context","98","940","bandit","bandit-task","116","443707","0.0-11.0-0.18","11193","291232","lowRank"
"108","3","20","false","context","worst","context","35","661","bandit","bandit-task","117","446795","0.0-11.0-0.19","11193","291232","lowRank"
"109","3","21","false","safe","risky","risky","70","717","bandit","bandit-task","118","450451","0.0-11.0-0.20","11193","291232","lowRank"
"110","3","22","false","context","worst","context","1","533","bandit","bandit-task","119","454028","0.0-11.0-0.21","11193","291232","lowRank"
"111","3","23","true","","","worst","0","564","bandit","bandit-task","120","456987","0.0-11.0-0.22","11193","291232","lowRank"
"112","3","24","false","context","worst","context","90","589","bandit","bandit-task","121","459964","0.0-11.0-0.23","11193","291232","lowRank"
"113","3","25","false","worst","context","context","1","492","bandit","bandit-task","122","462796","0.0-11.0-0.24","11193","291232","lowRank"
"114","3","26","false","context","worst","context","1","484","bandit","bandit-task","123","465675","0.0-11.0-0.25","11193","291232","lowRank"
"115","3","27","false","safe","risky","risky","30","548","bandit","bandit-task","124","468651","0.0-11.0-0.26","11193","291232","lowRank"
"116","3","28","false","worst","context","context","59","541","bandit","bandit-task","125","471579","0.0-11.0-0.27","11193","291232","lowRank"
"117","3","29","true","","","safe","50","493","bandit","bandit-task","126","474955","0.0-11.0-0.28","11193","291232","lowRank"
"118","3","30","false","worst","context","context","61","589","bandit","bandit-task","127","478076","0.0-11.0-0.29","11193","291232","lowRank"
"119","3","31","false","worst","context","context","1","549","bandit","bandit-task","128","481012","0.0-11.0-0.30","11193","291232","lowRank"
"120","3","32","false","worst","context","context","1","437","bandit","bandit-task","129","483836","0.0-11.0-0.31","11193","291232","lowRank"
"121","3","33","false","context","worst","context","92","661","bandit","bandit-task","130","487300","0.0-11.0-0.32","11193","291232","lowRank"
"122","3","34","true","","","safe","50","494","bandit","bandit-task","131","490188","0.0-11.0-0.33","11193","291232","lowRank"
"123","3","35","false","safe","risky","safe","50","573","bandit","bandit-task","132","493196","0.0-11.0-0.34","11193","291232","lowRank"
"124","3","36","false","worst","context","context","85","581","bandit","bandit-task","133","496108","0.0-11.0-0.35","11193","291232","lowRank"
"125","3","37","false","safe","risky","safe","50","540","bandit","bandit-task","134","499436","0.0-11.0-0.36","11193","291232","lowRank"
"126","3","38","false","worst","context","context","1","613","bandit","bandit-task","135","502484","0.0-11.0-0.37","11193","291232","lowRank"
"127","3","39","false","safe","risky","safe","50","518","bandit","bandit-task","136","505731","0.0-11.0-0.38","11193","291232","lowRank"
"128","3","40","false","safe","risky","risky","70","701","bandit","bandit-task","137","508780","0.0-11.0-0.39","11193","291232","lowRank"
"129","3","41","true","","","context","43","525","bandit","bandit-task","138","511876","0.0-11.0-0.40","11193","291232","lowRank"
"130","3","42","false","risky","safe","safe","50","557","bandit","bandit-task","139","515076","0.0-11.0-0.41","11193","291232","lowRank"
"131","3","43","false","safe","risky","safe","50","693","bandit","bandit-task","140","518436","0.0-11.0-0.42","11193","291232","lowRank"
"132","3","44","false","safe","risky","risky","70","429","bandit","bandit-task","141","522020","0.0-11.0-0.43","11193","291232","lowRank"
"133","4","1","false","context","worst","context","81","807","bandit","bandit-task","143","528276","0.0-13.0-0.0","11193","291232","lowRank"
"134","4","2","false","context","worst","context","99","724","bandit","bandit-task","144","531340","0.0-13.0-0.1","11193","291232","lowRank"
"135","4","3","true","","","risky","70","525","bandit","bandit-task","145","534508","0.0-13.0-0.2","11193","291232","lowRank"
"136","4","4","false","risky","safe","risky","70","662","bandit","bandit-task","146","537549","0.0-13.0-0.3","11193","291232","lowRank"
"137","4","5","false","worst","context","context","1","876","bandit","bandit-task","147","540804","0.0-13.0-0.4","11193","291232","lowRank"
"138","4","6","false","worst","context","context","58","485","bandit","bandit-task","148","544004","0.0-13.0-0.5","11193","291232","lowRank"
"139","4","7","false","worst","context","context","1","637","bandit","bandit-task","149","547004","0.0-13.0-0.6","11193","291232","lowRank"
"140","4","8","false","worst","context","context","1","813","bandit","bandit-task","150","550165","0.0-13.0-0.7","11193","291232","lowRank"
"141","4","9","false","context","worst","context","60","636","bandit","bandit-task","151","553165","0.0-13.0-0.8","11193","291232","lowRank"
"142","4","10","false","context","worst","context","1","692","bandit","bandit-task","152","556260","0.0-13.0-0.9","11193","291232","lowRank"
"143","4","11","false","safe","risky","risky","70","668","bandit","bandit-task","153","559804","0.0-13.0-0.10","11193","291232","lowRank"
"144","4","12","false","safe","risky","risky","30","549","bandit","bandit-task","154","563412","0.0-13.0-0.11","11193","291232","lowRank"
"145","4","13","true","","","risky","30","548","bandit","bandit-task","155","566404","0.0-13.0-0.12","11193","291232","lowRank"
"146","4","14","false","worst","context","context","55","589","bandit","bandit-task","156","570676","0.0-13.0-0.13","11193","291232","lowRank"
"147","4","15","false","worst","context","context","92","788","bandit","bandit-task","157","574204","0.0-13.0-0.14","11193","291232","lowRank"
"148","4","16","true","","","worst","0","613","bandit","bandit-task","158","577228","0.0-13.0-0.15","11193","291232","lowRank"
"149","4","17","true","","","context","1","596","bandit","bandit-task","159","580188","0.0-13.0-0.16","11193","291232","lowRank"
"150","4","18","false","context","worst","context","44","692","bandit","bandit-task","160","583236","0.0-13.0-0.17","11193","291232","lowRank"
"151","4","19","false","worst","context","context","87","540","bandit","bandit-task","161","586709","0.0-13.0-0.18","11193","291232","lowRank"
"152","4","20","false","context","worst","context","36","603","bandit","bandit-task","162","589684","0.0-13.0-0.19","11193","291232","lowRank"
"153","4","21","false","safe","risky","risky","30","756","bandit","bandit-task","163","592796","0.0-13.0-0.20","11193","291232","lowRank"
"154","4","22","false","worst","context","context","1","637","bandit","bandit-task","164","596028","0.0-13.0-0.21","11193","291232","lowRank"
"155","4","23","true","","","worst","0","868","bandit","bandit-task","165","599636","0.0-13.0-0.22","11193","291232","lowRank"
"156","4","24","false","context","worst","context","82","733","bandit","bandit-task","166","603804","0.0-13.0-0.23","11193","291232","lowRank"
"157","4","25","false","context","worst","context","86","629","bandit","bandit-task","167","607284","0.0-13.0-0.24","11193","291232","lowRank"
"158","4","26","false","worst","context","context","93","589","bandit","bandit-task","168","610644","0.0-13.0-0.25","11193","291232","lowRank"
"159","4","27","false","safe","risky","risky","30","876","bandit","bandit-task","169","614140","0.0-13.0-0.26","11193","291232","lowRank"
"160","4","28","false","context","worst","context","1","587","bandit","bandit-task","170","617484","0.0-13.0-0.27","11193","291232","lowRank"
"161","4","29","true","","","safe","50","797","bandit","bandit-task","171","620868","0.0-13.0-0.28","11193","291232","lowRank"
"162","4","30","false","context","worst","context","100","877","bandit","bandit-task","172","625116","0.0-13.0-0.29","11193","291232","lowRank"
"163","4","31","false","worst","context","context","1","596","bandit","bandit-task","173","628165","0.0-13.0-0.30","11193","291232","lowRank"
"164","4","32","false","context","worst","context","43","596","bandit","bandit-task","174","631349","0.0-13.0-0.31","11193","291232","lowRank"
"165","4","33","false","context","worst","context","57","668","bandit","bandit-task","175","634540","0.0-13.0-0.32","11193","291232","lowRank"
"166","4","34","true","","","safe","50","509","bandit","bandit-task","176","637588","0.0-13.0-0.33","11193","291232","lowRank"
"167","4","35","false","risky","safe","safe","50","628","bandit","bandit-task","177","640660","0.0-13.0-0.34","11193","291232","lowRank"
"168","4","36","false","worst","context","context","38","700","bandit","bandit-task","178","645092","0.0-13.0-0.35","11193","291232","lowRank"
"169","4","37","false","risky","safe","safe","50","2868","bandit","bandit-task","179","651629","0.0-13.0-0.36","11193","291232","lowRank"
"170","4","38","false","worst","context","context","95","620","bandit","bandit-task","180","655636","0.0-13.0-0.37","11193","291232","lowRank"
"171","4","39","false","safe","risky","risky","30","629","bandit","bandit-task","181","660859","0.0-13.0-0.38","11193","291232","lowRank"
"172","4","40","false","risky","safe","safe","50","804","bandit","bandit-task","182","664539","0.0-13.0-0.39","11193","291232","lowRank"
"173","4","41","true","","","context","1","509","bandit","bandit-task","183","667707","0.0-13.0-0.40","11193","291232","lowRank"
"174","4","42","false","safe","risky","risky","70","724","bandit","bandit-task","184","671051","0.0-13.0-0.41","11193","291232","lowRank"
"175","4","43","false","safe","risky","risky","30","621","bandit","bandit-task","185","674515","0.0-13.0-0.42","11193","291232","lowRank"
"176","4","44","false","safe","risky","risky","70","533","bandit","bandit-task","186","678564","0.0-13.0-0.43","11193","291232","lowRank"
"177","5","1","false","worst","context","context","89","638","bandit","bandit-task","188","684875","0.0-15.0-0.0","11193","291232","lowRank"
"178","5","2","false","context","worst","context","1","667","bandit","bandit-task","189","688387","0.0-15.0-0.1","11193","291232","lowRank"
"179","5","3","true","","","risky","70","557","bandit","bandit-task","190","691899","0.0-15.0-0.2","11193","291232","lowRank"
"180","5","4","false","risky","safe","safe","50","701","bandit","bandit-task","191","696547","0.0-15.0-0.3","11193","291232","lowRank"
"181","5","5","false","worst","context","context","94","1221","bandit","bandit-task","192","701603","0.0-15.0-0.4","11193","291232","lowRank"
"182","5","6","false","context","worst","context","1","748","bandit","bandit-task","193","705803","0.0-15.0-0.5","11193","291232","lowRank"
"183","5","7","false","worst","context","context","1","715","bandit","bandit-task","194","709619","0.0-15.0-0.6","11193","291232","lowRank"
"184","5","8","false","context","worst","context","96","749","bandit","bandit-task","195","713915","0.0-15.0-0.7","11193","291232","lowRank"
"185","5","9","false","worst","context","context","63","540","bandit","bandit-task","196","717043","0.0-15.0-0.8","11193","291232","lowRank"
"186","5","10","false","worst","context","context","65","982","bandit","bandit-task","197","720749","0.0-15.0-0.9","11193","291232","lowRank"
"187","5","11","false","risky","safe","safe","50","748","bandit","bandit-task","198","724788","0.0-15.0-0.10","11193","291232","lowRank"
"188","5","12","false","safe","risky","risky","70","708","bandit","bandit-task","199","728140","0.0-15.0-0.11","11193","291232","lowRank"
"189","5","13","true","","","risky","30","724","bandit","bandit-task","200","731204","0.0-15.0-0.12","11193","291232","lowRank"
"190","5","14","false","context","worst","context","45","1014","bandit","bandit-task","201","734772","0.0-15.0-0.13","11193","291232","lowRank"
"191","5","15","false","worst","context","context","1","476","bandit","bandit-task","202","737820","0.0-15.0-0.14","11193","291232","lowRank"
"192","5","16","true","","","worst","0","517","bandit","bandit-task","203","740813","0.0-15.0-0.15","11193","291232","lowRank"
"193","5","17","true","","","context","42","500","bandit","bandit-task","204","744117","0.0-15.0-0.16","11193","291232","lowRank"
"194","5","18","false","context","worst","context","64","884","bandit","bandit-task","205","747644","0.0-15.0-0.17","11193","291232","lowRank"
"195","5","19","false","worst","context","context","1","460","bandit","bandit-task","206","752236","0.0-15.0-0.18","11193","291232","lowRank"
"196","5","20","false","worst","context","context","85","610","bandit","bandit-task","207","755324","0.0-15.0-0.19","11193","291232","lowRank"
"197","5","21","false","risky","safe","risky","70","661","bandit","bandit-task","208","758629","0.0-15.0-0.20","11193","291232","lowRank"
"198","5","22","false","context","worst","context","81","804","bandit","bandit-task","209","761829","0.0-15.0-0.21","11193","291232","lowRank"
"199","5","23","true","","","worst","0","540","bandit","bandit-task","210","764788","0.0-15.0-0.22","11193","291232","lowRank"
"200","5","24","false","context","worst","context","1","964","bandit","bandit-task","211","768388","0.0-15.0-0.23","11193","291232","lowRank"
"201","5","25","false","context","worst","context","37","676","bandit","bandit-task","212","771524","0.0-15.0-0.24","11193","291232","lowRank"
"202","5","26","false","worst","context","context","1","540","bandit","bandit-task","213","774805","0.0-15.0-0.25","11193","291232","lowRank"
"203","5","27","false","safe","risky","risky","70","1051","bandit","bandit-task","214","778340","0.0-15.0-0.26","11193","291232","lowRank"
"204","5","28","false","worst","context","context","88","756","bandit","bandit-task","215","782044","0.0-15.0-0.27","11193","291232","lowRank"
"205","5","29","true","","","safe","50","533","bandit","bandit-task","216","784956","0.0-15.0-0.28","11193","291232","lowRank"
"206","5","30","false","context","worst","context","35","621","bandit","bandit-task","217","787965","0.0-15.0-0.29","11193","291232","lowRank"
"207","5","31","false","context","worst","context","84","724","bandit","bandit-task","218","791084","0.0-15.0-0.30","11193","291232","lowRank"
"208","5","32","false","context","worst","context","83","605","bandit","bandit-task","219","794412","0.0-15.0-0.31","11193","291232","lowRank"
"209","5","33","false","worst","context","context","41","644","bandit","bandit-task","220","797636","0.0-15.0-0.32","11193","291232","lowRank"
"210","5","34","true","","","safe","50","533","bandit","bandit-task","221","800796","0.0-15.0-0.33","11193","291232","lowRank"
"211","5","35","false","risky","safe","safe","50","492","bandit","bandit-task","222","803652","0.0-15.0-0.34","11193","291232","lowRank"
"212","5","36","false","worst","context","context","56","612","bandit","bandit-task","223","806676","0.0-15.0-0.35","11193","291232","lowRank"
"213","5","37","false","risky","safe","safe","50","692","bandit","bandit-task","224","809948","0.0-15.0-0.36","11193","291232","lowRank"
"214","5","38","false","context","worst","context","1","757","bandit","bandit-task","225","813260","0.0-15.0-0.37","11193","291232","lowRank"
"215","5","39","false","safe","risky","risky","30","932","bandit","bandit-task","226","816844","0.0-15.0-0.38","11193","291232","lowRank"
"216","5","40","false","safe","risky","safe","50","821","bandit","bandit-task","227","820812","0.0-15.0-0.39","11193","291232","lowRank"
"217","5","41","true","","","context","1","484","bandit","bandit-task","228","823908","0.0-15.0-0.40","11193","291232","lowRank"
"218","5","42","false","risky","safe","safe","50","653","bandit","bandit-task","229","827100","0.0-15.0-0.41","11193","291232","lowRank"
"219","5","43","false","risky","safe","risky","30","652","bandit","bandit-task","230","830260","0.0-15.0-0.42","11193","291232","lowRank"
"220","5","44","false","risky","safe","safe","50","564","bandit","bandit-task","231","833332","0.0-15.0-0.43","11193","291232","lowRank"
