"banditTrial","block","trialInBlock","singleOption","leftOption","rightOption","choice","feedback","rt","task","trial_type","trial_index","time_elapsed","internal_node_id","participant","turkCode","condition"
"1","1","1","false","worst","context","context","100","4177","bandit","bandit-task","11","234533","0.0-7.0-0.0","7424","114867","highRank"
"2","1","2","false","safe","risky","risky","30","3828","bandit","bandit-task","12","242212","0.0-7.0-0.1","7424","114867","highRank"
"3","1","3","false","worst","context","context","14","2581","bandit","bandit-task","13","247660","0.0-7.0-0.2","7424","114867","highRank"
"4","1","4","false","context","worst","context","100","2901","bandit","bandit-task","14","256732","0.0-7.0-0.3","7424","114867","highRank"
"5","1","5","false","worst","context","worst","0","3413","bandit","bandit-task","15","262996","0.0-7.0-0.4","7424","114867","highRank"
"6","1","6","false","worst","context","context","18","2045","bandit","bandit-task","16","268325","0.0-7.0-0.5","7424","114867","highRank"
"7","1","7","false","context","worst","context","38","2069","bandit","bandit-task","17","274277","0.0-7.0-0.6","7424","114867","highRank"
"8","1","8","false","context","worst","context","100","2429","bandit","bandit-task","18","279501","0.0-7.0-0.7","7424","114867","highRank"
"9","1","9","false","context","worst","context","19","2180","bandit","bandit-task","19","284508","0.0-7.0-0.8","7424","114867","highRank"
"10","1","10","false","risky","safe","safe","50","2085","bandit","bandit-task","20","289420","0.0-7.0-0.9","7424","114867","highRank"
"11","1","11","false","safe","risky","risky","30","2213","bandit","bandit-task","21","294476","0.0-7.0-0.10","7424","114867","highRank"
"12","1","12","false","context","worst","worst","0","1749","bandit","bandit-task","22","299196","0.0-7.0-0.11","7424","114867","highRank"
"13","1","13","true","","","risky","70","1357","bandit","bandit-task","23","303596","0.0-7.0-0.12","7424","114867","highRank"
"14","1","14","false","safe","risky","safe","50","1197","bandit","bandit-task","24","307628","0.0-7.0-0.13","7424","114867","highRank"
"15","1","15","false","worst","context","context","44","1197","bandit","bandit-task","25","311612","0.0-7.0-0.14","7424","114867","highRank"
"16","1","16","true","","","worst","0","1301","bandit","bandit-task","26","316316","0.0-7.0-0.15","7424","114867","highRank"
"17","1","17","true","","","context","4","909","bandit","bandit-task","27","320300","0.0-7.0-0.16","7424","114867","highRank"
"18","1","18","false","context","worst","context","41","1309","bandit","bandit-task","28","324404","0.0-7.0-0.17","7424","114867","highRank"
"19","1","19","false","worst","context","context","5","1258","bandit","bandit-task","29","328440","0.0-7.0-0.18","7424","114867","highRank"
"20","1","20","false","worst","context","context","100","1180","bandit","bandit-task","30","332496","0.0-7.0-0.19","7424","114867","highRank"
"21","1","21","true","","","context","100","1349","bandit","bandit-task","31","336728","0.0-7.0-0.20","7424","114867","highRank"
"22","1","22","false","context","worst","context","100","926","bandit","bandit-task","32","340376","0.0-7.0-0.21","7424","114867","highRank"
"23","1","23","false","worst","context","context","39","958","bandit","bandit-task","33","344200","0.0-7.0-0.22","7424","114867","highRank"
"24","1","24","true","","","worst","0","1094","bandit","bandit-task","34","348496","0.0-7.0-0.23","7424","114867","highRank"
"25","1","25","false","worst","context","context","35","941","bandit","bandit-task","35","352096","0.0-7.0-0.24","7424","114867","highRank"
"26","1","26","false","safe","risky","risky","70","1733","bandit","bandit-task","36","356936","0.0-7.0-0.25","7424","114867","highRank"
"27","1","27","false","context","worst","context","20","1014","bandit","bandit-task","37","360744","0.0-7.0-0.26","7424","114867","highRank"
"28","1","28","false","safe","risky","risky","70","1078","bandit","bandit-task","38","364824","0.0-7.0-0.27","7424","114867","highRank"
"29","1","29","true","","","safe","50","1045","bandit","bandit-task","39","369096","0.0-7.0-0.28","7424","114867","highRank"
"30","1","30","false","worst","context","context","13","1062","bandit","bandit-task","40","373007","0.0-7.0-0.29","7424","114867","highRank"
"31","1","31","false","safe","risky","risky","70","1629","bandit","bandit-task","41","378335","0.0-7.0-0.30","7424","114867","highRank"
"32","1","32","false","risky","safe","risky","30","1252","bandit","bandit-task","42","382335","0.0-7.0-0.31","7424","114867","highRank"
"33","1","33","false","safe","risky","risky","70","1725","bandit","bandit-task","43","386775","0.0-7.0-0.32","7424","114867","highRank"
"34","1","34","false","context","worst","context","57","1077","bandit","bandit-task","44","390911","0.0-7.0-0.33","7424","114867","highRank"
"35","1","35","false","risky","safe","risky","70","1157","bandit","bandit-task","45","395359","0.0-7.0-0.34","7424","114867","highRank"
"36","1","36","false","safe","risky","risky","30","1693","bandit","bandit-task","46","399831","0.0-7.0-0.35","7424","114867","highRank"
"37","1","37","true","","","safe","50","1181","bandit","bandit-task","47","404079","0.0-7.0-0.36","7424","114867","highRank"
"38","1","38","false","context","worst","context","100","1413","bandit","bandit-task","48","408791","0.0-7.0-0.37","7424","114867","highRank"
"39","1","39","false","context","worst","context","100","1242","bandit","bandit-task","49","413094","0.0-7.0-0.38","7424","114867","highRank"
"40","1","40","false","safe","risky","risky","30","942","bandit","bandit-task","50","416791","0.0-7.0-0.39","7424","114867","highRank"
"41","1","41","true","","","risky","30","894","bandit","bandit-task","51","420726","0.0-7.0-0.40","7424","114867","highRank"
"42","1","42","false","worst","context","context","45","1022","bandit","bandit-task","52","424975","0.0-7.0-0.41","7424","114867","highRank"
"43","1","43","false","context","worst","context","56","878","bandit","bandit-task","53","428583","0.0-7.0-0.42","7424","114867","highRank"
"44","1","44","false","worst","context","context","17","884","bandit","bandit-task","54","432510","0.0-7.0-0.43","7424","114867","highRank"
"45","2","1","false","context","worst","context","9","990","bandit","bandit-task","56","453149","0.0-9.0-0.0","7424","114867","highRank"
"46","2","2","false","safe","risky","risky","70","1285","bandit","bandit-task","57","457005","0.0-9.0-0.1","7424","114867","highRank"
"47","2","3","false","worst","context","worst","0","1229","bandit","bandit-task","58","461021","0.0-9.0-0.2","7424","114867","highRank"
"48","2","4","false","context","worst","context","100","909","bandit","bandit-task","59","465029","0.0-9.0-0.3","7424","114867","highRank"
"49","2","5","false","context","worst","context","40","1037","bandit","bandit-task","60","469557","0.0-9.0-0.4","7424","114867","highRank"
"50","2","6","false","worst","context","context","100","724","bandit","bandit-task","61","473228","0.0-9.0-0.5","7424","114867","highRank"
"51","2","7","false","worst","context","context","100","973","bandit","bandit-task","62","476933","0.0-9.0-0.6","7424","114867","highRank"
"52","2","8","false","worst","context","context","43","837","bandit","bandit-task","63","480509","0.0-9.0-0.7","7424","114867","highRank"
"53","2","9","false","context","worst","context","37","1181","bandit","bandit-task","64","484301","0.0-9.0-0.8","7424","114867","highRank"
"54","2","10","false","risky","safe","risky","30","1437","bandit","bandit-task","65","488405","0.0-9.0-0.9","7424","114867","highRank"
"55","2","11","false","safe","risky","risky","30","1341","bandit","bandit-task","66","492437","0.0-9.0-0.10","7424","114867","highRank"
"56","2","12","false","worst","context","context","11","1157","bandit","bandit-task","67","496149","0.0-9.0-0.11","7424","114867","highRank"
"57","2","13","true","","","risky","70","964","bandit","bandit-task","68","500068","0.0-9.0-0.12","7424","114867","highRank"
"58","2","14","false","risky","safe","risky","70","1269","bandit","bandit-task","69","503892","0.0-9.0-0.13","7424","114867","highRank"
"59","2","15","false","context","worst","context","100","1125","bandit","bandit-task","70","507772","0.0-9.0-0.14","7424","114867","highRank"
"60","2","16","true","","","worst","0","1173","bandit","bandit-task","71","512002","0.0-9.0-0.15","7424","114867","highRank"
"61","2","17","true","","","context","61","821","bandit","bandit-task","72","515970","0.0-9.0-0.16","7424","114867","highRank"
"62","2","18","false","worst","context","context","15","925","bandit","bandit-task","73","519666","0.0-9.0-0.17","7424","114867","highRank"
"63","2","19","false","worst","context","context","100","1148","bandit","bandit-task","74","523906","0.0-9.0-0.18","7424","114867","highRank"
"64","2","20","false","context","worst","context","12","1101","bandit","bandit-task","75","527626","0.0-9.0-0.19","7424","114867","highRank"
"65","2","21","true","","","context","2","741","bandit","bandit-task","76","530898","0.0-9.0-0.20","7424","114867","highRank"
"66","2","22","false","worst","context","context","100","805","bandit","bandit-task","77","534450","0.0-9.0-0.21","7424","114867","highRank"
"67","2","23","false","context","worst","context","100","845","bandit","bandit-task","78","537962","0.0-9.0-0.22","7424","114867","highRank"
"68","2","24","true","","","worst","0","1261","bandit","bandit-task","79","542578","0.0-9.0-0.23","7424","114867","highRank"
"69","2","25","false","worst","context","context","100","828","bandit","bandit-task","80","546433","0.0-9.0-0.24","7424","114867","highRank"
"70","2","26","false","safe","risky","risky","30","1694","bandit","bandit-task","81","550929","0.0-9.0-0.25","7424","114867","highRank"
"71","2","27","false","worst","context","context","1","1101","bandit","bandit-task","82","554754","0.0-9.0-0.26","7424","114867","highRank"
"72","2","28","false","risky","safe","risky","70","1212","bandit","bandit-task","83","558746","0.0-9.0-0.27","7424","114867","highRank"
"73","2","29","true","","","safe","50","852","bandit","bandit-task","84","562617","0.0-9.0-0.28","7424","114867","highRank"
"74","2","30","false","context","worst","context","60","996","bandit","bandit-task","85","566345","0.0-9.0-0.29","7424","114867","highRank"
"75","2","31","false","risky","safe","risky","70","1844","bandit","bandit-task","86","570889","0.0-9.0-0.30","7424","114867","highRank"
"76","2","32","false","risky","safe","risky","30","1285","bandit","bandit-task","87","574849","0.0-9.0-0.31","7424","114867","highRank"
"77","2","33","false","safe","risky","safe","50","1316","bandit","bandit-task","88","578857","0.0-9.0-0.32","7424","114867","highRank"
"78","2","34","false","worst","context","context","64","1013","bandit","bandit-task","89","582497","0.0-9.0-0.33","7424","114867","highRank"
"79","2","35","false","safe","risky","risky","70","1541","bandit","bandit-task","90","587009","0.0-9.0-0.34","7424","114867","highRank"
"80","2","36","false","safe","risky","risky","70","1829","bandit","bandit-task","91","591593","0.0-9.0-0.35","7424","114867","highRank"
"81","2","37","true","","","safe","50","781","bandit","bandit-task","92","595545","0.0-9.0-0.36","7424","114867","highRank"
"82","2","38","false","worst","context","context","8","1868","bandit","bandit-task","93","600913","0.0-9.0-0.37","7424","114867","highRank"
"83","2","39","false","worst","context","context","6","883","bandit","bandit-task","94","604441","0.0-9.0-0.38","7424","114867","highRank"
"84","2","40","false","safe","risky","risky","70","2421","bandit","bandit-task","95","609601","0.0-9.0-0.39","7424","114867","highRank"
"85","2","41","true","","","risky","30","933","bandit","bandit-task","96","613409","0.0-9.0-0.40","7424","114867","highRank"
"86","2","42","false","context","worst","context","55","1006","bandit","bandit-task","97","616937","0.0-9.0-0.41","7424","114867","highRank"
"87","2","43","false","context","worst","context","58","949","bandit","bandit-task","98","620873","0.0-9.0-0.42","7424","114867","highRank"
"88","2","44","false","context","worst","context","8","1061","bandit","bandit-task","99","624673","0.0-9.0-0.43","7424","114867","highRank"
"89","3","1","false","context","worst","context","63","1318","bandit","bandit-task","101","638425","0.0-11.0-0.0","7424","114867","highRank"
"90","3","2","false","safe","risky","risky","70","1124","bandit","bandit-task","102","642122","0.0-11.0-0.1","7424","114867","highRank"
"91","3","3","false","worst","context","context","6","939","bandit","bandit-task","103","645857","0.0-11.0-0.2","7424","114867","highRank"
"92","3","4","false","worst","context","context","100","900","bandit","bandit-task","104","649441","0.0-11.0-0.3","7424","114867","highRank"
"93","3","5","false","context","worst","context","10","1285","bandit","bandit-task","105","653617","0.0-11.0-0.4","7424","114867","highRank"
"94","3","6","false","worst","context","context","3","820","bandit","bandit-task","106","657249","0.0-11.0-0.5","7424","114867","highRank"
"95","3","7","false","worst","context","context","100","1004","bandit","bandit-task","107","661041","0.0-11.0-0.6","7424","114867","highRank"
"96","3","8","false","worst","context","context","100","787","bandit","bandit-task","108","664529","0.0-11.0-0.7","7424","114867","highRank"
"97","3","9","false","context","worst","context","65","1061","bandit","bandit-task","109","669081","0.0-11.0-0.8","7424","114867","highRank"
"98","3","10","false","risky","safe","risky","70","1532","bandit","bandit-task","110","673185","0.0-11.0-0.9","7424","114867","highRank"
"99","3","11","false","risky","safe","risky","70","1021","bandit","bandit-task","111","676929","0.0-11.0-0.10","7424","114867","highRank"
"100","3","12","false","context","worst","context","100","1109","bandit","bandit-task","112","680633","0.0-11.0-0.11","7424","114867","highRank"
"101","3","13","true","","","risky","70","1005","bandit","bandit-task","113","684289","0.0-11.0-0.12","7424","114867","highRank"
"102","3","14","false","risky","safe","risky","70","1749","bandit","bandit-task","114","688585","0.0-11.0-0.13","7424","114867","highRank"
"103","3","15","false","context","worst","context","100","948","bandit","bandit-task","115","692241","0.0-11.0-0.14","7424","114867","highRank"
"104","3","16","true","","","worst","0","1020","bandit","bandit-task","116","696536","0.0-11.0-0.15","7424","114867","highRank"
"105","3","17","true","","","context","44","853","bandit","bandit-task","117","699944","0.0-11.0-0.16","7424","114867","highRank"
"106","3","18","false","worst","context","context","59","1661","bandit","bandit-task","118","704408","0.0-11.0-0.17","7424","114867","highRank"
"107","3","19","false","context","worst","context","62","892","bandit","bandit-task","119","708040","0.0-11.0-0.18","7424","114867","highRank"
"108","3","20","false","worst","context","context","63","813","bandit","bandit-task","120","711424","0.0-11.0-0.19","7424","114867","highRank"
"109","3","21","true","","","context","7","869","bandit","bandit-task","121","714960","0.0-11.0-0.20","7424","114867","highRank"
"110","3","22","false","worst","context","context","36","860","bandit","bandit-task","122","718568","0.0-11.0-0.21","7424","114867","highRank"
"111","3","23","false","context","worst","context","11","884","bandit","bandit-task","123","722592","0.0-11.0-0.22","7424","114867","highRank"
"112","3","24","true","","","worst","0","964","bandit","bandit-task","124","726704","0.0-11.0-0.23","7424","114867","highRank"
"113","3","25","false","context","worst","context","9","891","bandit","bandit-task","125","730719","0.0-11.0-0.24","7424","114867","highRank"
"114","3","26","false","risky","safe","risky","70","1476","bandit","bandit-task","126","736487","0.0-11.0-0.25","7424","114867","highRank"
"115","3","27","false","worst","context","context","16","972","bandit","bandit-task","127","740135","0.0-11.0-0.26","7424","114867","highRank"
"116","3","28","false","risky","safe","risky","30","2011","bandit","bandit-task","128","745407","0.0-11.0-0.27","7424","114867","highRank"
"117","3","29","true","","","safe","50","788","bandit","bandit-task","129","749223","0.0-11.0-0.28","7424","114867","highRank"
"118","3","30","false","worst","context","context","42","1173","bandit","bandit-task","130","753471","0.0-11.0-0.29","7424","114867","highRank"
"119","3","31","false","safe","risky","risky","30","2388","bandit","bandit-task","131","758449","0.0-11.0-0.30","7424","114867","highRank"
"120","3","32","false","risky","safe","risky","30","2221","bandit","bandit-task","132","763337","0.0-11.0-0.31","7424","114867","highRank"
"121","3","33","false","safe","risky","safe","50","1396","bandit","bandit-task","133","767641","0.0-11.0-0.32","7424","114867","highRank"
"122","3","34","false","worst","context","context","100","1148","bandit","bandit-task","134","771665","0.0-11.0-0.33","7424","114867","highRank"
"123","3","35","false","safe","risky","safe","50","1652","bandit","bandit-task","135","776025","0.0-11.0-0.34","7424","114867","highRank"
"124","3","36","false","risky","safe","risky","30","956","bandit","bandit-task","136","779641","0.0-11.0-0.35","7424","114867","highRank"
"125","3","37","true","","","safe","50","828","bandit","bandit-task","137","783697","0.0-11.0-0.36","7424","114867","highRank"
"126","3","38","false","worst","context","context","100","1020","bandit","bandit-task","138","787601","0.0-11.0-0.37","7424","114867","highRank"
"127","3","39","false","worst","context","context","100","1076","bandit","bandit-task","139","791498","0.0-11.0-0.38","7424","114867","highRank"
"128","3","40","false","risky","safe","risky","30","3683","bandit","bandit-task","140","797937","0.0-11.0-0.39","7424","114867","highRank"
"129","3","41","true","","","risky","30","733","bandit","bandit-task","141","801497","0.0-11.0-0.40","7424","114867","highRank"
"130","3","42","false","context","worst","context","17","980","bandit","bandit-task","142","805017","0.0-11.0-0.41","7424","114867","highRank"
"131","3","43","false","worst","context","context","100","987","bandit","bandit-task","143","808721","0.0-11.0-0.42","7424","114867","highRank"
"132","3","44","false","context","worst","context","100","908","bandit","bandit-task","144","812737","0.0-11.0-0.43","7424","114867","highRank"
"133","4","1","false","context","worst","context","1","879","bandit","bandit-task","146","818959","0.0-13.0-0.0","7424","114867","highRank"
"134","4","2","false","risky","safe","safe","50","1132","bandit","bandit-task","147","822872","0.0-13.0-0.1","7424","114867","highRank"
"135","4","3","false","worst","context","worst","0","1884","bandit","bandit-task","148","827319","0.0-13.0-0.2","7424","114867","highRank"
"136","4","4","false","worst","context","context","100","740","bandit","bandit-task","149","830608","0.0-13.0-0.3","7424","114867","highRank"
"137","4","5","false","worst","context","context","13","1092","bandit","bandit-task","150","834663","0.0-13.0-0.4","7424","114867","highRank"
"138","4","6","false","context","worst","context","100","867","bandit","bandit-task","151","838327","0.0-13.0-0.5","7424","114867","highRank"
"139","4","7","false","worst","context","context","38","700","bandit","bandit-task","152","842015","0.0-13.0-0.6","7424","114867","highRank"
"140","4","8","false","worst","context","context","100","1252","bandit","bandit-task","153","846159","0.0-13.0-0.7","7424","114867","highRank"
"141","4","9","false","worst","context","context","57","916","bandit","bandit-task","154","849855","0.0-13.0-0.8","7424","114867","highRank"
"142","4","10","false","safe","risky","safe","50","2412","bandit","bandit-task","155","854975","0.0-13.0-0.9","7424","114867","highRank"
"143","4","11","false","safe","risky","safe","50","996","bandit","bandit-task","156","858671","0.0-13.0-0.10","7424","114867","highRank"
"144","4","12","false","worst","context","context","100","1157","bandit","bandit-task","157","863263","0.0-13.0-0.11","7424","114867","highRank"
"145","4","13","true","","","risky","70","860","bandit","bandit-task","158","866919","0.0-13.0-0.12","7424","114867","highRank"
"146","4","14","false","risky","safe","risky","70","821","bandit","bandit-task","159","870415","0.0-13.0-0.13","7424","114867","highRank"
"147","4","15","false","worst","context","context","3","933","bandit","bandit-task","160","874015","0.0-13.0-0.14","7424","114867","highRank"
"148","4","16","true","","","worst","0","925","bandit","bandit-task","161","878302","0.0-13.0-0.15","7424","114867","highRank"
"149","4","17","true","","","context","56","788","bandit","bandit-task","162","881982","0.0-13.0-0.16","7424","114867","highRank"
"150","4","18","false","context","worst","context","35","996","bandit","bandit-task","163","886013","0.0-13.0-0.17","7424","114867","highRank"
"151","4","19","false","worst","context","context","60","756","bandit","bandit-task","164","889478","0.0-13.0-0.18","7424","114867","highRank"
"152","4","20","false","context","worst","context","15","901","bandit","bandit-task","165","893470","0.0-13.0-0.19","7424","114867","highRank"
"153","4","21","true","","","context","100","749","bandit","bandit-task","166","897389","0.0-13.0-0.20","7424","114867","highRank"
"154","4","22","false","worst","context","context","37","835","bandit","bandit-task","167","900982","0.0-13.0-0.21","7424","114867","highRank"
"155","4","23","false","worst","context","context","4","877","bandit","bandit-task","168","904510","0.0-13.0-0.22","7424","114867","highRank"
"156","4","24","true","","","worst","0","811","bandit","bandit-task","169","908301","0.0-13.0-0.23","7424","114867","highRank"
"157","4","25","false","worst","context","context","18","1315","bandit","bandit-task","170","912125","0.0-13.0-0.24","7424","114867","highRank"
"158","4","26","false","safe","risky","risky","30","1892","bandit","bandit-task","171","916661","0.0-13.0-0.25","7424","114867","highRank"
"159","4","27","false","context","worst","context","100","1003","bandit","bandit-task","172","920301","0.0-13.0-0.26","7424","114867","highRank"
"160","4","28","false","safe","risky","safe","50","2923","bandit","bandit-task","173","925901","0.0-13.0-0.27","7424","114867","highRank"
"161","4","29","true","","","safe","50","828","bandit","bandit-task","174","929981","0.0-13.0-0.28","7424","114867","highRank"
"162","4","30","false","context","worst","context","40","1124","bandit","bandit-task","175","933709","0.0-13.0-0.29","7424","114867","highRank"
"163","4","31","false","safe","risky","safe","50","1516","bandit","bandit-task","176","937933","0.0-13.0-0.30","7424","114867","highRank"
"164","4","32","false","safe","risky","risky","30","1988","bandit","bandit-task","177","942613","0.0-13.0-0.31","7424","114867","highRank"
"165","4","33","false","risky","safe","safe","50","883","bandit","bandit-task","178","946501","0.0-13.0-0.32","7424","114867","highRank"
"166","4","34","false","context","worst","context","7","812","bandit","bandit-task","179","949853","0.0-13.0-0.33","7424","114867","highRank"
"167","4","35","false","risky","safe","safe","50","2804","bandit","bandit-task","180","955253","0.0-13.0-0.34","7424","114867","highRank"
"168","4","36","false","risky","safe","safe","50","1116","bandit","bandit-task","181","959581","0.0-13.0-0.35","7424","114867","highRank"
"169","4","37","true","","","safe","50","756","bandit","bandit-task","182","963357","0.0-13.0-0.36","7424","114867","highRank"
"170","4","38","false","worst","context","context","65","1027","bandit","bandit-task","183","967085","0.0-13.0-0.37","7424","114867","highRank"
"171","4","39","false","context","worst","context","19","853","bandit","bandit-task","184","970789","0.0-13.0-0.38","7424","114867","highRank"
"172","4","40","false","risky","safe","safe","50","2804","bandit","bandit-task","185","976205","0.0-13.0-0.39","7424","114867","highRank"
"173","4","41","true","","","risky","30","781","bandit","bandit-task","186","980133","0.0-13.0-0.40","7424","114867","highRank"
"174","4","42","false","worst","context","context","100","901","bandit","bandit-task","187","983916","0.0-13.0-0.41","7424","114867","highRank"
"175","4","43","false","context","worst","context","5","765","bandit","bandit-task","188","987532","0.0-13.0-0.42","7424","114867","highRank"
"176","4","44","false","context","worst","context","20","981","bandit","bandit-task","189","991141","0.0-13.0-0.43","7424","114867","highRank"
"177","5","1","false","worst","context","context","100","1071","bandit","bandit-task","191","998636","0.0-15.0-0.0","7424","114867","highRank"
"178","5","2","false","safe","risky","risky","30","3445","bandit","bandit-task","192","1004598","0.0-15.0-0.1","7424","114867","highRank"
"179","5","3","false","worst","context","context","43","1084","bandit","bandit-task","193","1008254","0.0-15.0-0.2","7424","114867","highRank"
"180","5","4","false","worst","context","context","58","1156","bandit","bandit-task","194","1012126","0.0-15.0-0.3","7424","114867","highRank"
"181","5","5","false","context","worst","context","100","1924","bandit","bandit-task","195","1016726","0.0-15.0-0.4","7424","114867","highRank"
"182","5","6","false","context","worst","context","100","1876","bandit","bandit-task","196","1021374","0.0-15.0-0.5","7424","114867","highRank"
"183","5","7","false","context","worst","context","16","1027","bandit","bandit-task","197","1025118","0.0-15.0-0.6","7424","114867","highRank"
"184","5","8","false","worst","context","worst","0","1020","bandit","bandit-task","198","1028806","0.0-15.0-0.7","7424","114867","highRank"
"185","5","9","false","worst","context","context","12","676","bandit","bandit-task","199","1032269","0.0-15.0-0.8","7424","114867","highRank"
"186","5","10","false","safe","risky","safe","50","1629","bandit","bandit-task","200","1036686","0.0-15.0-0.9","7424","114867","highRank"
"187","5","11","false","risky","safe","risky","30","947","bandit","bandit-task","201","1040317","0.0-15.0-0.10","7424","114867","highRank"
"188","5","12","false","context","worst","context","100","923","bandit","bandit-task","202","1043981","0.0-15.0-0.11","7424","114867","highRank"
"189","5","13","true","","","risky","70","771","bandit","bandit-task","203","1047526","0.0-15.0-0.12","7424","114867","highRank"
"190","5","14","false","risky","safe","risky","30","827","bandit","bandit-task","204","1051046","0.0-15.0-0.13","7424","114867","highRank"
"191","5","15","false","worst","context","context","100","939","bandit","bandit-task","205","1054813","0.0-15.0-0.14","7424","114867","highRank"
"192","5","16","true","","","worst","0","821","bandit","bandit-task","206","1058853","0.0-15.0-0.15","7424","114867","highRank"
"193","5","17","true","","","context","42","836","bandit","bandit-task","207","1062524","0.0-15.0-0.16","7424","114867","highRank"
"194","5","18","false","context","worst","context","2","1050","bandit","bandit-task","208","1066636","0.0-15.0-0.17","7424","114867","highRank"
"195","5","19","false","worst","context","context","36","924","bandit","bandit-task","209","1070588","0.0-15.0-0.18","7424","114867","highRank"
"196","5","20","false","context","worst","context","10","1012","bandit","bandit-task","210","1074459","0.0-15.0-0.19","7424","114867","highRank"
"197","5","21","true","","","context","64","796","bandit","bandit-task","211","1078404","0.0-15.0-0.20","7424","114867","highRank"
"198","5","22","false","worst","context","context","100","868","bandit","bandit-task","212","1082156","0.0-15.0-0.21","7424","114867","highRank"
"199","5","23","false","worst","context","context","14","824","bandit","bandit-task","213","1085740","0.0-15.0-0.22","7424","114867","highRank"
"200","5","24","true","","","worst","0","859","bandit","bandit-task","214","1089283","0.0-15.0-0.23","7424","114867","highRank"
"201","5","25","false","context","worst","context","62","867","bandit","bandit-task","215","1092739","0.0-15.0-0.24","7424","114867","highRank"
"202","5","26","false","risky","safe","risky","30","2380","bandit","bandit-task","216","1097843","0.0-15.0-0.25","7424","114867","highRank"
"203","5","27","false","context","worst","context","100","1027","bandit","bandit-task","217","1101843","0.0-15.0-0.26","7424","114867","highRank"
"204","5","28","false","safe","risky","safe","50","2899","bandit","bandit-task","218","1107547","0.0-15.0-0.27","7424","114867","highRank"
"205","5","29","true","","","safe","50","755","bandit","bandit-task","219","1111243","0.0-15.0-0.28","7424","114867","highRank"
"206","5","30","false","context","worst","context","41","834","bandit","bandit-task","220","1114651","0.0-15.0-0.29","7424","114867","highRank"
"207","5","31","false","safe","risky","safe","50","2107","bandit","bandit-task","221","1119835","0.0-15.0-0.30","7424","114867","highRank"
"208","5","32","false","safe","risky","safe","50","2714","bandit","bandit-task","222","1125498","0.0-15.0-0.31","7424","114867","highRank"
"209","5","33","false","safe","risky","risky","70","1115","bandit","bandit-task","223","1129530","0.0-15.0-0.32","7424","114867","highRank"
"210","5","34","false","worst","context","context","39","1090","bandit","bandit-task","224","1133618","0.0-15.0-0.33","7424","114867","highRank"
"211","5","35","false","safe","risky","risky","70","1369","bandit","bandit-task","225","1137698","0.0-15.0-0.34","7424","114867","highRank"
"212","5","36","false","safe","risky","risky","70","842","bandit","bandit-task","226","1141218","0.0-15.0-0.35","7424","114867","highRank"
"213","5","37","true","","","safe","50","795","bandit","bandit-task","227","1145306","0.0-15.0-0.36","7424","114867","highRank"
"214","5","38","false","context","worst","context","100","1035","bandit","bandit-task","228","1149482","0.0-15.0-0.37","7424","114867","highRank"
"215","5","39","false","worst","context","context","45","922","bandit","bandit-task","229","1153346","0.0-15.0-0.38","7424","114867","highRank"
"216","5","40","false","risky","safe","risky","30","2291","bandit","bandit-task","230","1158282","0.0-15.0-0.39","7424","114867","highRank"
"217","5","41","true","","","risky","30","803","bandit","bandit-task","231","1161618","0.0-15.0-0.40","7424","114867","highRank"
"218","5","42","false","context","worst","context","100","924","bandit","bandit-task","232","1165602","0.0-15.0-0.41","7424","114867","highRank"
"219","5","43","false","context","worst","context","55","1107","bandit","bandit-task","233","1169738","0.0-15.0-0.42","7424","114867","highRank"
"220","5","44","false","worst","context","context","100","875","bandit","bandit-task","234","1173322","0.0-15.0-0.43","7424","114867","highRank"
