"banditTrial","block","trialInBlock","singleOption","leftOption","rightOption","choice","feedback","rt","task","trial_type","trial_index","time_elapsed","internal_node_id","participant","turkCode","condition"
"1","1","1","false","worst","context","context","100","2864","bandit","bandit-task","8","569268","0.0-7.0-0.0","14000","317737","highRank"
"2","1","2","false","worst","context","context","5","2585","bandit","bandit-task","9","574638","0.0-7.0-0.1","14000","317737","highRank"
"3","1","3","false","worst","context","context","100","1124","bandit","bandit-task","10","578861","0.0-7.0-0.2","14000","317737","highRank"
"4","1","4","false","context","worst","worst","0","3065","bandit","bandit-task","11","584816","0.0-7.0-0.3","14000","317737","highRank"
"5","1","5","false","context","worst","context","42","1280","bandit","bandit-task","12","588830","0.0-7.0-0.4","14000","317737","highRank"
"6","1","6","false","risky","safe","safe","50","1461","bandit","bandit-task","13","592874","0.0-7.0-0.5","14000","317737","highRank"
"7","1","7","false","worst","context","context","4","1211","bandit","bandit-task","14","596488","0.0-7.0-0.6","14000","317737","highRank"
"8","1","8","true","","","risky","70","976","bandit","bandit-task","15","600158","0.0-7.0-0.7","14000","317737","highRank"
"9","1","9","false","context","worst","worst","0","1248","bandit","bandit-task","16","603800","0.0-7.0-0.8","14000","317737","highRank"
"10","1","10","false","context","worst","worst","0","1309","bandit","bandit-task","17","607798","0.0-7.0-0.9","14000","317737","highRank"
"11","1","11","false","context","worst","context","41","806","bandit","bandit-task","18","611362","0.0-7.0-0.10","14000","317737","highRank"
"12","1","12","true","","","risky","30","855","bandit","bandit-task","19","614883","0.0-7.0-0.11","14000","317737","highRank"
"13","1","13","false","risky","safe","safe","50","1563","bandit","bandit-task","20","619097","0.0-7.0-0.12","14000","317737","highRank"
"14","1","14","true","","","worst","0","1094","bandit","bandit-task","21","622740","0.0-7.0-0.13","14000","317737","highRank"
"15","1","15","false","context","worst","context","36","1080","bandit","bandit-task","22","626528","0.0-7.0-0.14","14000","317737","highRank"
"16","1","16","false","context","worst","context","100","709","bandit","bandit-task","23","629735","0.0-7.0-0.15","14000","317737","highRank"
"17","1","17","false","safe","risky","safe","50","1352","bandit","bandit-task","24","633628","0.0-7.0-0.16","14000","317737","highRank"
"18","1","18","false","worst","context","context","35","1840","bandit","bandit-task","25","638075","0.0-7.0-0.17","14000","317737","highRank"
"19","1","19","false","worst","context","context","16","752","bandit","bandit-task","26","641401","0.0-7.0-0.18","14000","317737","highRank"
"20","1","20","false","context","worst","context","43","660","bandit","bandit-task","27","644565","0.0-7.0-0.19","14000","317737","highRank"
"21","1","21","false","risky","safe","safe","50","1671","bandit","bandit-task","28","648701","0.0-7.0-0.20","14000","317737","highRank"
"22","1","22","true","","","safe","50","686","bandit","bandit-task","29","651818","0.0-7.0-0.21","14000","317737","highRank"
"23","1","23","true","","","context","38","729","bandit","bandit-task","30","655015","0.0-7.0-0.22","14000","317737","highRank"
"24","1","24","false","worst","context","context","18","902","bandit","bandit-task","31","658484","0.0-7.0-0.23","14000","317737","highRank"
"25","1","25","false","context","worst","context","100","819","bandit","bandit-task","32","662238","0.0-7.0-0.24","14000","317737","highRank"
"26","1","26","true","","","context","57","632","bandit","bandit-task","33","665305","0.0-7.0-0.25","14000","317737","highRank"
"27","1","27","false","worst","context","context","2","684","bandit","bandit-task","34","668577","0.0-7.0-0.26","14000","317737","highRank"
"28","1","28","false","context","worst","context","100","522","bandit","bandit-task","35","672407","0.0-7.0-0.27","14000","317737","highRank"
"29","1","29","false","risky","safe","risky","70","1425","bandit","bandit-task","36","676243","0.0-7.0-0.28","14000","317737","highRank"
"30","1","30","false","worst","context","context","100","767","bandit","bandit-task","37","679812","0.0-7.0-0.29","14000","317737","highRank"
"31","1","31","false","risky","safe","risky","30","979","bandit","bandit-task","38","683193","0.0-7.0-0.30","14000","317737","highRank"
"32","1","32","false","risky","safe","safe","50","868","bandit","bandit-task","39","686566","0.0-7.0-0.31","14000","317737","highRank"
"33","1","33","false","context","worst","context","3","706","bandit","bandit-task","40","689747","0.0-7.0-0.32","14000","317737","highRank"
"34","1","34","false","context","worst","context","100","672","bandit","bandit-task","41","692897","0.0-7.0-0.33","14000","317737","highRank"
"35","1","35","false","safe","risky","risky","30","2239","bandit","bandit-task","42","697528","0.0-7.0-0.34","14000","317737","highRank"
"36","1","36","false","risky","safe","safe","50","1693","bandit","bandit-task","43","701793","0.0-7.0-0.35","14000","317737","highRank"
"37","1","37","false","risky","safe","safe","50","676","bandit","bandit-task","44","704952","0.0-7.0-0.36","14000","317737","highRank"
"38","1","38","false","worst","context","context","63","813","bandit","bandit-task","45","708282","0.0-7.0-0.37","14000","317737","highRank"
"39","1","39","true","","","worst","0","817","bandit","bandit-task","46","711587","0.0-7.0-0.38","14000","317737","highRank"
"40","1","40","false","context","worst","context","100","705","bandit","bandit-task","47","714754","0.0-7.0-0.39","14000","317737","highRank"
"41","1","41","true","","","safe","50","740","bandit","bandit-task","48","717990","0.0-7.0-0.40","14000","317737","highRank"
"42","1","42","false","worst","context","context","13","698","bandit","bandit-task","49","721150","0.0-7.0-0.41","14000","317737","highRank"
"43","1","43","false","safe","risky","risky","70","2092","bandit","bandit-task","50","725611","0.0-7.0-0.42","14000","317737","highRank"
"44","1","44","false","risky","safe","safe","50","4386","bandit","bandit-task","51","732502","0.0-7.0-0.43","14000","317737","highRank"
"45","2","1","false","context","worst","context","7","1639","bandit","bandit-task","53","772019","0.0-9.0-0.0","14000","317737","highRank"
"46","2","2","false","worst","context","context","100","640","bandit","bandit-task","54","775082","0.0-9.0-0.1","14000","317737","highRank"
"47","2","3","false","context","worst","context","100","571","bandit","bandit-task","55","778123","0.0-9.0-0.2","14000","317737","highRank"
"48","2","4","false","context","worst","context","45","676","bandit","bandit-task","56","781164","0.0-9.0-0.3","14000","317737","highRank"
"49","2","5","false","worst","context","context","44","632","bandit","bandit-task","57","784657","0.0-9.0-0.4","14000","317737","highRank"
"50","2","6","false","safe","risky","risky","70","1526","bandit","bandit-task","58","788794","0.0-9.0-0.5","14000","317737","highRank"
"51","2","7","false","context","worst","context","64","739","bandit","bandit-task","59","791903","0.0-9.0-0.6","14000","317737","highRank"
"52","2","8","true","","","risky","30","763","bandit","bandit-task","60","795027","0.0-9.0-0.7","14000","317737","highRank"
"53","2","9","false","context","worst","context","10","698","bandit","bandit-task","61","798213","0.0-9.0-0.8","14000","317737","highRank"
"54","2","10","false","worst","context","context","100","558","bandit","bandit-task","62","801181","0.0-9.0-0.9","14000","317737","highRank"
"55","2","11","false","worst","context","context","59","566","bandit","bandit-task","63","804122","0.0-9.0-0.10","14000","317737","highRank"
"56","2","12","true","","","risky","70","728","bandit","bandit-task","64","807381","0.0-9.0-0.11","14000","317737","highRank"
"57","2","13","false","risky","safe","safe","50","728","bandit","bandit-task","65","810513","0.0-9.0-0.12","14000","317737","highRank"
"58","2","14","true","","","worst","0","680","bandit","bandit-task","66","813568","0.0-9.0-0.13","14000","317737","highRank"
"59","2","15","false","worst","context","context","100","646","bandit","bandit-task","67","816716","0.0-9.0-0.14","14000","317737","highRank"
"60","2","16","false","context","worst","context","40","662","bandit","bandit-task","68","819931","0.0-9.0-0.15","14000","317737","highRank"
"61","2","17","false","safe","risky","risky","30","1545","bandit","bandit-task","69","823873","0.0-9.0-0.16","14000","317737","highRank"
"62","2","18","false","worst","context","context","15","679","bandit","bandit-task","70","826976","0.0-9.0-0.17","14000","317737","highRank"
"63","2","19","false","worst","context","context","56","601","bandit","bandit-task","71","829953","0.0-9.0-0.18","14000","317737","highRank"
"64","2","20","false","worst","context","context","1","558","bandit","bandit-task","72","832891","0.0-9.0-0.19","14000","317737","highRank"
"65","2","21","false","risky","safe","risky","30","1673","bandit","bandit-task","73","836946","0.0-9.0-0.20","14000","317737","highRank"
"66","2","22","true","","","safe","50","492","bandit","bandit-task","74","839781","0.0-9.0-0.21","14000","317737","highRank"
"67","2","23","true","","","context","100","569","bandit","bandit-task","75","842723","0.0-9.0-0.22","14000","317737","highRank"
"68","2","24","false","context","worst","context","6","736","bandit","bandit-task","76","845887","0.0-9.0-0.23","14000","317737","highRank"
"69","2","25","false","worst","context","context","58","522","bandit","bandit-task","77","849109","0.0-9.0-0.24","14000","317737","highRank"
"70","2","26","true","","","context","100","508","bandit","bandit-task","78","852104","0.0-9.0-0.25","14000","317737","highRank"
"71","2","27","false","worst","context","context","12","562","bandit","bandit-task","79","855030","0.0-9.0-0.26","14000","317737","highRank"
"72","2","28","false","worst","context","context","14","655","bandit","bandit-task","80","858215","0.0-9.0-0.27","14000","317737","highRank"
"73","2","29","false","risky","safe","risky","70","1366","bandit","bandit-task","81","862146","0.0-9.0-0.28","14000","317737","highRank"
"74","2","30","false","context","worst","context","100","749","bandit","bandit-task","82","865376","0.0-9.0-0.29","14000","317737","highRank"
"75","2","31","false","risky","safe","risky","30","1380","bandit","bandit-task","83","869326","0.0-9.0-0.30","14000","317737","highRank"
"76","2","32","false","safe","risky","risky","70","696","bandit","bandit-task","84","872747","0.0-9.0-0.31","14000","317737","highRank"
"77","2","33","false","context","worst","context","20","861","bandit","bandit-task","85","878176","0.0-9.0-0.32","14000","317737","highRank"
"78","2","34","false","worst","context","context","8","630","bandit","bandit-task","86","881564","0.0-9.0-0.33","14000","317737","highRank"
"79","2","35","false","safe","risky","safe","50","911","bandit","bandit-task","87","884841","0.0-9.0-0.34","14000","317737","highRank"
"80","2","36","false","safe","risky","safe","50","753","bandit","bandit-task","88","888102","0.0-9.0-0.35","14000","317737","highRank"
"81","2","37","false","safe","risky","safe","50","514","bandit","bandit-task","89","891068","0.0-9.0-0.36","14000","317737","highRank"
"82","2","38","false","worst","context","context","100","682","bandit","bandit-task","90","894173","0.0-9.0-0.37","14000","317737","highRank"
"83","2","39","true","","","worst","0","925","bandit","bandit-task","91","897479","0.0-9.0-0.38","14000","317737","highRank"
"84","2","40","false","worst","context","context","61","624","bandit","bandit-task","92","900510","0.0-9.0-0.39","14000","317737","highRank"
"85","2","41","true","","","safe","50","997","bandit","bandit-task","93","903929","0.0-9.0-0.40","14000","317737","highRank"
"86","2","42","false","worst","context","context","62","583","bandit","bandit-task","94","906884","0.0-9.0-0.41","14000","317737","highRank"
"87","2","43","false","safe","risky","safe","50","988","bandit","bandit-task","95","910715","0.0-9.0-0.42","14000","317737","highRank"
"88","2","44","false","safe","risky","safe","50","1162","bandit","bandit-task","96","915005","0.0-9.0-0.43","14000","317737","highRank"
"89","3","1","false","context","worst","context","100","762","bandit","bandit-task","98","926558","0.0-11.0-0.0","14000","317737","highRank"
"90","3","2","false","context","worst","context","5","623","bandit","bandit-task","99","929554","0.0-11.0-0.1","14000","317737","highRank"
"91","3","3","false","context","worst","context","19","520","bandit","bandit-task","100","932525","0.0-11.0-0.2","14000","317737","highRank"
"92","3","4","false","context","worst","context","100","456","bandit","bandit-task","101","935369","0.0-11.0-0.3","14000","317737","highRank"
"93","3","5","false","context","worst","context","65","495","bandit","bandit-task","102","938202","0.0-11.0-0.4","14000","317737","highRank"
"94","3","6","false","risky","safe","risky","30","2361","bandit","bandit-task","103","943029","0.0-11.0-0.5","14000","317737","highRank"
"95","3","7","false","worst","context","context","37","764","bandit","bandit-task","104","946610","0.0-11.0-0.6","14000","317737","highRank"
"96","3","8","true","","","risky","70","507","bandit","bandit-task","105","949699","0.0-11.0-0.7","14000","317737","highRank"
"97","3","9","false","worst","context","context","20","766","bandit","bandit-task","106","952957","0.0-11.0-0.8","14000","317737","highRank"
"98","3","10","false","worst","context","context","60","655","bandit","bandit-task","107","955981","0.0-11.0-0.9","14000","317737","highRank"
"99","3","11","false","context","worst","context","9","643","bandit","bandit-task","108","958998","0.0-11.0-0.10","14000","317737","highRank"
"100","3","12","true","","","risky","30","748","bandit","bandit-task","109","962102","0.0-11.0-0.11","14000","317737","highRank"
"101","3","13","false","safe","risky","risky","30","964","bandit","bandit-task","110","965827","0.0-11.0-0.12","14000","317737","highRank"
"102","3","14","true","","","worst","0","797","bandit","bandit-task","111","969050","0.0-11.0-0.13","14000","317737","highRank"
"103","3","15","false","worst","context","context","55","618","bandit","bandit-task","112","972024","0.0-11.0-0.14","14000","317737","highRank"
"104","3","16","false","context","worst","context","17","681","bandit","bandit-task","113","975138","0.0-11.0-0.15","14000","317737","highRank"
"105","3","17","false","risky","safe","risky","70","661","bandit","bandit-task","114","978365","0.0-11.0-0.16","14000","317737","highRank"
"106","3","18","false","context","worst","context","100","692","bandit","bandit-task","115","981779","0.0-11.0-0.17","14000","317737","highRank"
"107","3","19","false","worst","context","context","100","700","bandit","bandit-task","116","985025","0.0-11.0-0.18","14000","317737","highRank"
"108","3","20","false","worst","context","context","100","684","bandit","bandit-task","117","988092","0.0-11.0-0.19","14000","317737","highRank"
"109","3","21","false","risky","safe","risky","70","2066","bandit","bandit-task","118","992550","0.0-11.0-0.20","14000","317737","highRank"
"110","3","22","true","","","safe","50","531","bandit","bandit-task","119","995553","0.0-11.0-0.21","14000","317737","highRank"
"111","3","23","true","","","context","100","675","bandit","bandit-task","120","998618","0.0-11.0-0.22","14000","317737","highRank"
"112","3","24","false","worst","context","context","3","544","bandit","bandit-task","121","1001549","0.0-11.0-0.23","14000","317737","highRank"
"113","3","25","false","context","worst","context","11","685","bandit","bandit-task","122","1004983","0.0-11.0-0.24","14000","317737","highRank"
"114","3","26","true","","","context","100","571","bandit","bandit-task","123","1007924","0.0-11.0-0.25","14000","317737","highRank"
"115","3","27","false","worst","context","context","56","587","bandit","bandit-task","124","1010933","0.0-11.0-0.26","14000","317737","highRank"
"116","3","28","false","context","worst","context","13","675","bandit","bandit-task","125","1014262","0.0-11.0-0.27","14000","317737","highRank"
"117","3","29","false","safe","risky","safe","50","661","bandit","bandit-task","126","1017459","0.0-11.0-0.28","14000","317737","highRank"
"118","3","30","false","context","worst","context","39","1122","bandit","bandit-task","127","1021139","0.0-11.0-0.29","14000","317737","highRank"
"119","3","31","false","risky","safe","safe","50","808","bandit","bandit-task","128","1024356","0.0-11.0-0.30","14000","317737","highRank"
"120","3","32","false","risky","safe","safe","50","759","bandit","bandit-task","129","1027672","0.0-11.0-0.31","14000","317737","highRank"
"121","3","33","false","worst","context","context","100","623","bandit","bandit-task","130","1030695","0.0-11.0-0.32","14000","317737","highRank"
"122","3","34","false","context","worst","context","39","687","bandit","bandit-task","131","1033724","0.0-11.0-0.33","14000","317737","highRank"
"123","3","35","false","safe","risky","risky","30","1427","bandit","bandit-task","132","1037595","0.0-11.0-0.34","14000","317737","highRank"
"124","3","36","false","risky","safe","risky","70","539","bandit","bandit-task","133","1040550","0.0-11.0-0.35","14000","317737","highRank"
"125","3","37","false","risky","safe","risky","70","1922","bandit","bandit-task","134","1044848","0.0-11.0-0.36","14000","317737","highRank"
"126","3","38","false","context","worst","context","100","734","bandit","bandit-task","135","1047926","0.0-11.0-0.37","14000","317737","highRank"
"127","3","39","true","","","worst","0","817","bandit","bandit-task","136","1051111","0.0-11.0-0.38","14000","317737","highRank"
"128","3","40","false","context","worst","context","44","604","bandit","bandit-task","137","1054150","0.0-11.0-0.39","14000","317737","highRank"
"129","3","41","true","","","safe","50","745","bandit","bandit-task","138","1057284","0.0-11.0-0.40","14000","317737","highRank"
"130","3","42","false","context","worst","context","41","786","bandit","bandit-task","139","1060662","0.0-11.0-0.41","14000","317737","highRank"
"131","3","43","false","risky","safe","safe","50","2050","bandit","bandit-task","140","1065243","0.0-11.0-0.42","14000","317737","highRank"
"132","3","44","false","safe","risky","safe","50","750","bandit","bandit-task","141","1068392","0.0-11.0-0.43","14000","317737","highRank"
"133","4","1","false","worst","context","context","62","1457","bandit","bandit-task","143","1107969","0.0-13.0-0.0","14000","317737","highRank"
"134","4","2","false","context","worst","context","19","544","bandit","bandit-task","144","1113826","0.0-13.0-0.1","14000","317737","highRank"
"135","4","3","false","context","worst","context","10","525","bandit","bandit-task","145","1116721","0.0-13.0-0.2","14000","317737","highRank"
"136","4","4","false","context","worst","context","9","532","bandit","bandit-task","146","1119777","0.0-13.0-0.3","14000","317737","highRank"
"137","4","5","false","context","worst","context","100","723","bandit","bandit-task","147","1123734","0.0-13.0-0.4","14000","317737","highRank"
"138","4","6","false","risky","safe","risky","70","2904","bandit","bandit-task","148","1129082","0.0-13.0-0.5","14000","317737","highRank"
"139","4","7","false","worst","context","context","15","642","bandit","bandit-task","149","1132139","0.0-13.0-0.6","14000","317737","highRank"
"140","4","8","true","","","risky","70","837","bandit","bandit-task","150","1135379","0.0-13.0-0.7","14000","317737","highRank"
"141","4","9","false","context","worst","context","100","656","bandit","bandit-task","151","1138497","0.0-13.0-0.8","14000","317737","highRank"
"142","4","10","false","worst","context","context","40","596","bandit","bandit-task","152","1141600","0.0-13.0-0.9","14000","317737","highRank"
"143","4","11","false","worst","context","context","100","625","bandit","bandit-task","153","1144630","0.0-13.0-0.10","14000","317737","highRank"
"144","4","12","true","","","risky","70","727","bandit","bandit-task","154","1147758","0.0-13.0-0.11","14000","317737","highRank"
"145","4","13","false","safe","risky","safe","50","911","bandit","bandit-task","155","1151064","0.0-13.0-0.12","14000","317737","highRank"
"146","4","14","true","","","worst","0","682","bandit","bandit-task","156","1154101","0.0-13.0-0.13","14000","317737","highRank"
"147","4","15","false","context","worst","context","45","542","bandit","bandit-task","157","1157992","0.0-13.0-0.14","14000","317737","highRank"
"148","4","16","false","worst","context","context","59","721","bandit","bandit-task","158","1161274","0.0-13.0-0.15","14000","317737","highRank"
"149","4","17","false","risky","safe","safe","50","1787","bandit","bandit-task","159","1165436","0.0-13.0-0.16","14000","317737","highRank"
"150","4","18","false","context","worst","context","43","704","bandit","bandit-task","160","1168650","0.0-13.0-0.17","14000","317737","highRank"
"151","4","19","false","worst","context","context","100","558","bandit","bandit-task","161","1241233","0.0-13.0-0.18","14000","317737","highRank"
"152","4","20","false","context","worst","context","4","633","bandit","bandit-task","162","1244593","0.0-13.0-0.19","14000","317737","highRank"
"153","4","21","false","safe","risky","safe","50","2577","bandit","bandit-task","163","1249709","0.0-13.0-0.20","14000","317737","highRank"
"154","4","22","true","","","safe","50","498","bandit","bandit-task","164","1252588","0.0-13.0-0.21","14000","317737","highRank"
"155","4","23","true","","","context","8","600","bandit","bandit-task","165","1255741","0.0-13.0-0.22","14000","317737","highRank"
"156","4","24","false","worst","context","context","1","595","bandit","bandit-task","166","1258695","0.0-13.0-0.23","14000","317737","highRank"
"157","4","25","false","context","worst","context","18","564","bandit","bandit-task","167","1261741","0.0-13.0-0.24","14000","317737","highRank"
"158","4","26","true","","","context","100","465","bandit","bandit-task","168","1264589","0.0-13.0-0.25","14000","317737","highRank"
"159","4","27","false","context","worst","context","100","536","bandit","bandit-task","169","1267957","0.0-13.0-0.26","14000","317737","highRank"
"160","4","28","false","context","worst","context","100","520","bandit","bandit-task","170","1270880","0.0-13.0-0.27","14000","317737","highRank"
"161","4","29","false","safe","risky","safe","50","1233","bandit","bandit-task","171","1274614","0.0-13.0-0.28","14000","317737","highRank"
"162","4","30","false","context","worst","context","38","532","bandit","bandit-task","172","1277561","0.0-13.0-0.29","14000","317737","highRank"
"163","4","31","false","safe","risky","risky","70","926","bandit","bandit-task","173","1280983","0.0-13.0-0.30","14000","317737","highRank"
"164","4","32","false","risky","safe","safe","50","913","bandit","bandit-task","174","1284620","0.0-13.0-0.31","14000","317737","highRank"
"165","4","33","false","worst","context","context","12","1066","bandit","bandit-task","175","1288223","0.0-13.0-0.32","14000","317737","highRank"
"166","4","34","false","worst","context","context","61","568","bandit","bandit-task","176","1291346","0.0-13.0-0.33","14000","317737","highRank"
"167","4","35","false","safe","risky","safe","50","1203","bandit","bandit-task","177","1295063","0.0-13.0-0.34","14000","317737","highRank"
"168","4","36","false","safe","risky","safe","50","606","bandit","bandit-task","178","1298380","0.0-13.0-0.35","14000","317737","highRank"
"169","4","37","false","risky","safe","safe","50","974","bandit","bandit-task","179","1301725","0.0-13.0-0.36","14000","317737","highRank"
"170","4","38","false","context","worst","context","7","625","bandit","bandit-task","180","1304726","0.0-13.0-0.37","14000","317737","highRank"
"171","4","39","true","","","worst","0","983","bandit","bandit-task","181","1308160","0.0-13.0-0.38","14000","317737","highRank"
"172","4","40","false","worst","context","context","65","662","bandit","bandit-task","182","1311226","0.0-13.0-0.39","14000","317737","highRank"
"173","4","41","true","","","safe","50","611","bandit","bandit-task","183","1314352","0.0-13.0-0.40","14000","317737","highRank"
"174","4","42","false","worst","context","context","100","675","bandit","bandit-task","184","1317507","0.0-13.0-0.41","14000","317737","highRank"
"175","4","43","false","risky","safe","safe","50","1254","bandit","bandit-task","185","1321306","0.0-13.0-0.42","14000","317737","highRank"
"176","4","44","false","risky","safe","safe","50","661","bandit","bandit-task","186","1324435","0.0-13.0-0.43","14000","317737","highRank"
"177","5","1","false","context","worst","context","16","807","bandit","bandit-task","188","1338898","0.0-15.0-0.0","14000","317737","highRank"
"178","5","2","false","context","worst","context","14","689","bandit","bandit-task","189","1342659","0.0-15.0-0.1","14000","317737","highRank"
"179","5","3","false","context","worst","context","57","1337","bandit","bandit-task","190","1348290","0.0-15.0-0.2","14000","317737","highRank"
"180","5","4","false","worst","context","context","100","600","bandit","bandit-task","191","1351395","0.0-15.0-0.3","14000","317737","highRank"
"181","5","5","false","context","worst","context","58","582","bandit","bandit-task","192","1357418","0.0-15.0-0.4","14000","317737","highRank"
"182","5","6","false","safe","risky","risky","30","2136","bandit","bandit-task","193","1362009","0.0-15.0-0.5","14000","317737","highRank"
"183","5","7","false","worst","context","context","100","681","bandit","bandit-task","194","1365397","0.0-15.0-0.6","14000","317737","highRank"
"184","5","8","true","","","risky","70","542","bandit","bandit-task","195","1368312","0.0-15.0-0.7","14000","317737","highRank"
"185","5","9","false","context","worst","context","100","677","bandit","bandit-task","196","1371376","0.0-15.0-0.8","14000","317737","highRank"
"186","5","10","false","context","worst","context","100","582","bandit","bandit-task","197","1374627","0.0-15.0-0.9","14000","317737","highRank"
"187","5","11","false","context","worst","context","100","605","bandit","bandit-task","198","1377680","0.0-15.0-0.10","14000","317737","highRank"
"188","5","12","true","","","risky","30","600","bandit","bandit-task","199","1380691","0.0-15.0-0.11","14000","317737","highRank"
"189","5","13","false","safe","risky","risky","30","633","bandit","bandit-task","200","1383865","0.0-15.0-0.12","14000","317737","highRank"
"190","5","14","true","","","worst","0","564","bandit","bandit-task","201","1386793","0.0-15.0-0.13","14000","317737","highRank"
"191","5","15","false","context","worst","context","11","551","bandit","bandit-task","202","1389822","0.0-15.0-0.14","14000","317737","highRank"
"192","5","16","false","context","worst","context","36","600","bandit","bandit-task","203","1392796","0.0-15.0-0.15","14000","317737","highRank"
"193","5","17","false","risky","safe","risky","70","1417","bandit","bandit-task","204","1396630","0.0-15.0-0.16","14000","317737","highRank"
"194","5","18","false","worst","context","context","35","762","bandit","bandit-task","205","1399720","0.0-15.0-0.17","14000","317737","highRank"
"195","5","19","false","context","worst","context","2","522","bandit","bandit-task","206","1402692","0.0-15.0-0.18","14000","317737","highRank"
"196","5","20","false","context","worst","context","100","543","bandit","bandit-task","207","1406089","0.0-15.0-0.19","14000","317737","highRank"
"197","5","21","false","safe","risky","risky","70","4104","bandit","bandit-task","208","1416976","0.0-15.0-0.20","14000","317737","highRank"
"198","5","22","true","","","safe","50","863","bandit","bandit-task","209","1420277","0.0-15.0-0.21","14000","317737","highRank"
"199","5","23","true","","","context","100","776","bandit","bandit-task","210","1424443","0.0-15.0-0.22","14000","317737","highRank"
"200","5","24","false","worst","context","context","60","724","bandit","bandit-task","211","1427538","0.0-15.0-0.23","14000","317737","highRank"
"201","5","25","false","context","worst","context","55","525","bandit","bandit-task","212","1431313","0.0-15.0-0.24","14000","317737","highRank"
"202","5","26","true","","","context","17","545","bandit","bandit-task","213","1434655","0.0-15.0-0.25","14000","317737","highRank"
"203","5","27","false","worst","context","context","6","504","bandit","bandit-task","214","1437597","0.0-15.0-0.26","14000","317737","highRank"
"204","5","28","false","worst","context","context","42","546","bandit","bandit-task","215","1440543","0.0-15.0-0.27","14000","317737","highRank"
"205","5","29","false","risky","safe","safe","50","1359","bandit","bandit-task","216","1444249","0.0-15.0-0.28","14000","317737","highRank"
"206","5","30","false","worst","context","context","64","695","bandit","bandit-task","217","1447421","0.0-15.0-0.29","14000","317737","highRank"
"207","5","31","false","safe","risky","safe","50","1106","bandit","bandit-task","218","1451004","0.0-15.0-0.30","14000","317737","highRank"
"208","5","32","false","safe","risky","safe","50","711","bandit","bandit-task","219","1454162","0.0-15.0-0.31","14000","317737","highRank"
"209","5","33","false","context","worst","context","100","658","bandit","bandit-task","220","1457189","0.0-15.0-0.32","14000","317737","highRank"
"210","5","34","false","context","worst","context","63","563","bandit","bandit-task","221","1460201","0.0-15.0-0.33","14000","317737","highRank"
"211","5","35","false","safe","risky","safe","50","1929","bandit","bandit-task","222","1464754","0.0-15.0-0.34","14000","317737","highRank"
"212","5","36","false","risky","safe","safe","50","767","bandit","bandit-task","223","1468063","0.0-15.0-0.35","14000","317737","highRank"
"213","5","37","false","risky","safe","safe","50","600","bandit","bandit-task","224","1471042","0.0-15.0-0.36","14000","317737","highRank"
"214","5","38","false","context","worst","context","100","668","bandit","bandit-task","225","1474105","0.0-15.0-0.37","14000","317737","highRank"
"215","5","39","true","","","worst","0","805","bandit","bandit-task","226","1477466","0.0-15.0-0.38","14000","317737","highRank"
"216","5","40","false","context","worst","context","100","557","bandit","bandit-task","227","1480519","0.0-15.0-0.39","14000","317737","highRank"
"217","5","41","true","","","safe","50","568","bandit","bandit-task","228","1483460","0.0-15.0-0.40","14000","317737","highRank"
"218","5","42","false","worst","context","context","100","576","bandit","bandit-task","229","1486413","0.0-15.0-0.41","14000","317737","highRank"
"219","5","43","false","safe","risky","safe","50","1006","bandit","bandit-task","230","1490213","0.0-15.0-0.42","14000","317737","highRank"
"220","5","44","false","safe","risky","safe","50","821","bandit","bandit-task","231","1493524","0.0-15.0-0.43","14000","317737","highRank"
