"banditTrial","block","trialInBlock","singleOption","leftOption","rightOption","choice","feedback","rt","task","choiceType","trial_type","trial_index","time_elapsed","internal_node_id","participant","turkCode","condition"
"1","1","1","false","safe","risky","risky","100","2942","bandit","high_value","bandit-task","11","222856","0.0-7.0-0.0","33885","276352","highRank"
"2","1","2","false","risky","safe","safe","10","1909","bandit","low_value","bandit-task","12","228369","0.0-7.0-0.1","33885","276352","highRank"
"3","1","3","false","risky","safe","risky","80","950","bandit","high_value","bandit-task","13","232421","0.0-7.0-0.2","33885","276352","highRank"
"4","1","4","false","safe","risky","risky","0","1622","bandit","low_value","bandit-task","14","237175","0.0-7.0-0.3","33885","276352","highRank"
"5","1","5","false","risky","safe","safe","10","1074","bandit","low_value","bandit-task","15","241958","0.0-7.0-0.4","33885","276352","highRank"
"6","1","6","false","safe","risky","safe","10","901","bandit","low_value","bandit-task","16","245987","0.0-7.0-0.5","33885","276352","highRank"
"7","1","7","false","safe","risky","safe","50","992","bandit","decision","bandit-task","17","249986","0.0-7.0-0.6","33885","276352","highRank"
"8","1","8","false","risky","safe","risky","0","1307","bandit","low_value","bandit-task","18","254549","0.0-7.0-0.7","33885","276352","highRank"
"9","1","9","false","risky","safe","safe","10","1029","bandit","low_value","bandit-task","19","258662","0.0-7.0-0.8","33885","276352","highRank"
"10","1","10","false","safe","risky","risky","30","831","bandit","decision","bandit-task","20","262327","0.0-7.0-0.9","33885","276352","highRank"
"11","1","11","false","risky","safe","safe","50","694","bandit","decision","bandit-task","21","265961","0.0-7.0-0.10","33885","276352","highRank"
"12","1","12","false","risky","safe","safe","50","602","bandit","decision","bandit-task","22","269365","0.0-7.0-0.11","33885","276352","highRank"
"13","1","13","false","risky","safe","safe","10","654","bandit","low_value","bandit-task","23","272956","0.0-7.0-0.12","33885","276352","highRank"
"14","1","14","false","risky","safe","safe","50","680","bandit","decision","bandit-task","24","276309","0.0-7.0-0.13","33885","276352","highRank"
"15","1","15","false","risky","safe","risky","0","630","bandit","low_value","bandit-task","25","279947","0.0-7.0-0.14","33885","276352","highRank"
"16","1","16","false","safe","risky","safe","10","653","bandit","low_value","bandit-task","26","283220","0.0-7.0-0.15","33885","276352","highRank"
"17","1","17","false","safe","risky","risky","70","665","bandit","decision","bandit-task","27","287631","0.0-7.0-0.16","33885","276352","highRank"
"18","1","18","false","risky","safe","safe","10","698","bandit","low_value","bandit-task","28","291005","0.0-7.0-0.17","33885","276352","highRank"
"19","1","19","false","risky","safe","safe","10","550","bandit","low_value","bandit-task","29","294173","0.0-7.0-0.18","33885","276352","highRank"
"20","1","20","false","risky","safe","safe","50","575","bandit","decision","bandit-task","30","297456","0.0-7.0-0.19","33885","276352","highRank"
"21","1","21","false","risky","safe","risky","20","814","bandit","low_value","bandit-task","31","301304","0.0-7.0-0.20","33885","276352","highRank"
"22","1","22","false","risky","safe","risky","0","794","bandit","low_value","bandit-task","32","304953","0.0-7.0-0.21","33885","276352","highRank"
"23","1","23","false","safe","risky","safe","10","1169","bandit","low_value","bandit-task","33","308861","0.0-7.0-0.22","33885","276352","highRank"
"24","1","24","false","safe","risky","risky","100","1066","bandit","high_value","bandit-task","34","312925","0.0-7.0-0.23","33885","276352","highRank"
"25","1","25","false","safe","risky","safe","50","1082","bandit","decision","bandit-task","35","316737","0.0-7.0-0.24","33885","276352","highRank"
"26","1","26","false","safe","risky","safe","50","1190","bandit","decision","bandit-task","36","320680","0.0-7.0-0.25","33885","276352","highRank"
"27","1","27","false","risky","safe","risky","0","1537","bandit","low_value","bandit-task","37","324944","0.0-7.0-0.26","33885","276352","highRank"
"28","1","28","false","safe","risky","safe","50","1110","bandit","decision","bandit-task","38","328725","0.0-7.0-0.27","33885","276352","highRank"
"29","1","29","false","safe","risky","safe","10","957","bandit","low_value","bandit-task","39","332500","0.0-7.0-0.28","33885","276352","highRank"
"30","1","30","false","safe","risky","safe","50","1209","bandit","decision","bandit-task","40","336506","0.0-7.0-0.29","33885","276352","highRank"
"31","1","31","false","risky","safe","safe","10","1375","bandit","low_value","bandit-task","41","340522","0.0-7.0-0.30","33885","276352","highRank"
"32","1","32","false","safe","risky","safe","10","1012","bandit","low_value","bandit-task","42","344267","0.0-7.0-0.31","33885","276352","highRank"
"33","1","33","false","risky","safe","safe","10","1106","bandit","low_value","bandit-task","43","348013","0.0-7.0-0.32","33885","276352","highRank"
"34","1","34","false","risky","safe","risky","0","926","bandit","low_value","bandit-task","44","351786","0.0-7.0-0.33","33885","276352","highRank"
"35","1","35","false","safe","risky","risky","80","1669","bandit","high_value","bandit-task","45","356338","0.0-7.0-0.34","33885","276352","highRank"
"36","1","36","false","risky","safe","safe","50","1113","bandit","decision","bandit-task","46","360113","0.0-7.0-0.35","33885","276352","highRank"
"37","2","1","false","safe","risky","safe","90","1568","bandit","high_value","bandit-task","48","370654","0.0-9.0-0.0","33885","276352","highRank"
"38","2","2","false","risky","safe","safe","10","1108","bandit","low_value","bandit-task","49","374534","0.0-9.0-0.1","33885","276352","highRank"
"39","2","3","false","safe","risky","safe","10","1419","bandit","low_value","bandit-task","50","378665","0.0-9.0-0.2","33885","276352","highRank"
"40","2","4","false","safe","risky","risky","0","1473","bandit","low_value","bandit-task","51","383024","0.0-9.0-0.3","33885","276352","highRank"
"41","2","5","false","safe","risky","risky","30","2098","bandit","decision","bandit-task","52","388102","0.0-9.0-0.4","33885","276352","highRank"
"42","2","6","false","risky","safe","safe","50","1253","bandit","decision","bandit-task","53","392527","0.0-9.0-0.5","33885","276352","highRank"
"43","2","7","false","safe","risky","safe","10","1200","bandit","low_value","bandit-task","54","396456","0.0-9.0-0.6","33885","276352","highRank"
"44","2","8","false","risky","safe","safe","10","1017","bandit","low_value","bandit-task","55","400183","0.0-9.0-0.7","33885","276352","highRank"
"45","2","9","false","risky","safe","safe","10","1044","bandit","low_value","bandit-task","56","404002","0.0-9.0-0.8","33885","276352","highRank"
"46","2","10","false","safe","risky","safe","10","1153","bandit","low_value","bandit-task","57","407815","0.0-9.0-0.9","33885","276352","highRank"
"47","2","11","false","risky","safe","safe","10","954","bandit","low_value","bandit-task","58","411578","0.0-9.0-0.10","33885","276352","highRank"
"48","2","12","false","safe","risky","safe","10","1008","bandit","low_value","bandit-task","59","415389","0.0-9.0-0.11","33885","276352","highRank"
"49","2","13","false","risky","safe","safe","50","2081","bandit","decision","bandit-task","60","420300","0.0-9.0-0.12","33885","276352","highRank"
"50","2","14","false","risky","safe","safe","10","1094","bandit","low_value","bandit-task","61","424069","0.0-9.0-0.13","33885","276352","highRank"
"51","2","15","false","risky","safe","risky","20","1397","bandit","low_value","bandit-task","62","428420","0.0-9.0-0.14","33885","276352","highRank"
"52","2","16","false","safe","risky","risky","20","1043","bandit","low_value","bandit-task","63","432316","0.0-9.0-0.15","33885","276352","highRank"
"53","2","17","false","risky","safe","risky","70","2160","bandit","decision","bandit-task","64","437223","0.0-9.0-0.16","33885","276352","highRank"
"54","2","18","false","risky","safe","risky","70","1090","bandit","decision","bandit-task","65","441622","0.0-9.0-0.17","33885","276352","highRank"
"55","2","19","false","risky","safe","risky","0","1714","bandit","low_value","bandit-task","66","446218","0.0-9.0-0.18","33885","276352","highRank"
"56","2","20","false","risky","safe","safe","90","1421","bandit","high_value","bandit-task","67","450334","0.0-9.0-0.19","33885","276352","highRank"
"57","2","21","false","risky","safe","safe","10","986","bandit","low_value","bandit-task","68","454064","0.0-9.0-0.20","33885","276352","highRank"
"58","2","22","false","safe","risky","safe","90","1765","bandit","high_value","bandit-task","69","458497","0.0-9.0-0.21","33885","276352","highRank"
"59","2","23","false","risky","safe","safe","50","1639","bandit","decision","bandit-task","70","462963","0.0-9.0-0.22","33885","276352","highRank"
"60","2","24","false","risky","safe","safe","10","1228","bandit","low_value","bandit-task","71","467214","0.0-9.0-0.23","33885","276352","highRank"
"61","2","25","false","safe","risky","safe","50","1339","bandit","decision","bandit-task","72","471159","0.0-9.0-0.24","33885","276352","highRank"
"62","2","26","false","risky","safe","safe","10","1076","bandit","low_value","bandit-task","73","474892","0.0-9.0-0.25","33885","276352","highRank"
"63","2","27","false","safe","risky","safe","10","1068","bandit","low_value","bandit-task","74","478667","0.0-9.0-0.26","33885","276352","highRank"
"64","2","28","false","safe","risky","risky","70","1405","bandit","decision","bandit-task","75","483013","0.0-9.0-0.27","33885","276352","highRank"
"65","2","29","false","risky","safe","risky","70","1007","bandit","decision","bandit-task","76","486710","0.0-9.0-0.28","33885","276352","highRank"
"66","2","30","false","risky","safe","safe","10","1779","bandit","low_value","bandit-task","77","491393","0.0-9.0-0.29","33885","276352","highRank"
"67","2","31","false","safe","risky","risky","70","1343","bandit","decision","bandit-task","78","495519","0.0-9.0-0.30","33885","276352","highRank"
"68","2","32","false","risky","safe","safe","10","1141","bandit","low_value","bandit-task","79","499494","0.0-9.0-0.31","33885","276352","highRank"
"69","2","33","false","risky","safe","safe","10","1133","bandit","low_value","bandit-task","80","503545","0.0-9.0-0.32","33885","276352","highRank"
"70","2","34","false","risky","safe","safe","90","2049","bandit","high_value","bandit-task","81","508480","0.0-9.0-0.33","33885","276352","highRank"
"71","2","35","false","safe","risky","risky","30","1671","bandit","decision","bandit-task","82","513028","0.0-9.0-0.34","33885","276352","highRank"
"72","2","36","false","risky","safe","safe","50","1014","bandit","decision","bandit-task","83","516898","0.0-9.0-0.35","33885","276352","highRank"
"73","3","1","false","safe","risky","safe","90","1827","bandit","high_value","bandit-task","85","524074","0.0-11.0-0.0","33885","276352","highRank"
"74","3","2","false","safe","risky","risky","30","1531","bandit","decision","bandit-task","86","528406","0.0-11.0-0.1","33885","276352","highRank"
"75","3","3","false","risky","safe","risky","20","1323","bandit","low_value","bandit-task","87","532503","0.0-11.0-0.2","33885","276352","highRank"
"76","3","4","false","safe","risky","risky","0","898","bandit","low_value","bandit-task","88","536037","0.0-11.0-0.3","33885","276352","highRank"
"77","3","5","false","risky","safe","safe","10","963","bandit","low_value","bandit-task","89","540277","0.0-11.0-0.4","33885","276352","highRank"
"78","3","6","false","safe","risky","risky","70","2026","bandit","decision","bandit-task","90","545107","0.0-11.0-0.5","33885","276352","highRank"
"79","3","7","false","risky","safe","safe","10","1186","bandit","low_value","bandit-task","91","549070","0.0-11.0-0.6","33885","276352","highRank"
"80","3","8","false","risky","safe","risky","0","1002","bandit","low_value","bandit-task","92","552819","0.0-11.0-0.7","33885","276352","highRank"
"81","3","9","false","risky","safe","safe","10","1003","bandit","low_value","bandit-task","93","556519","0.0-11.0-0.8","33885","276352","highRank"
"82","3","10","false","safe","risky","risky","70","1185","bandit","decision","bandit-task","94","560443","0.0-11.0-0.9","33885","276352","highRank"
"83","3","11","false","risky","safe","safe","10","1043","bandit","low_value","bandit-task","95","564264","0.0-11.0-0.10","33885","276352","highRank"
"84","3","12","false","risky","safe","safe","10","926","bandit","low_value","bandit-task","96","568097","0.0-11.0-0.11","33885","276352","highRank"
"85","3","13","false","risky","safe","safe","10","922","bandit","low_value","bandit-task","97","571760","0.0-11.0-0.12","33885","276352","highRank"
"86","3","14","false","safe","risky","safe","10","1626","bandit","low_value","bandit-task","98","576576","0.0-11.0-0.13","33885","276352","highRank"
"87","3","15","false","risky","safe","risky","0","1651","bandit","low_value","bandit-task","99","581519","0.0-11.0-0.14","33885","276352","highRank"
"88","3","16","false","risky","safe","risky","70","1957","bandit","decision","bandit-task","100","586857","0.0-11.0-0.15","33885","276352","highRank"
"89","3","17","false","risky","safe","safe","10","1194","bandit","low_value","bandit-task","101","590828","0.0-11.0-0.16","33885","276352","highRank"
"90","3","18","false","risky","safe","safe","10","975","bandit","low_value","bandit-task","102","594455","0.0-11.0-0.17","33885","276352","highRank"
"91","3","19","false","safe","risky","risky","70","1692","bandit","decision","bandit-task","103","598977","0.0-11.0-0.18","33885","276352","highRank"
"92","3","20","false","risky","safe","risky","30","1708","bandit","decision","bandit-task","104","603374","0.0-11.0-0.19","33885","276352","highRank"
"93","3","21","false","safe","risky","safe","50","1023","bandit","decision","bandit-task","105","607192","0.0-11.0-0.20","33885","276352","highRank"
"94","3","22","false","safe","risky","safe","90","1369","bandit","high_value","bandit-task","106","611328","0.0-11.0-0.21","33885","276352","highRank"
"95","3","23","false","safe","risky","risky","30","1353","bandit","decision","bandit-task","107","615431","0.0-11.0-0.22","33885","276352","highRank"
"96","3","24","false","risky","safe","safe","10","1388","bandit","low_value","bandit-task","108","619737","0.0-11.0-0.23","33885","276352","highRank"
"97","3","25","false","safe","risky","risky","70","2126","bandit","decision","bandit-task","109","624640","0.0-11.0-0.24","33885","276352","highRank"
"98","3","26","false","safe","risky","risky","70","931","bandit","decision","bandit-task","110","628251","0.0-11.0-0.25","33885","276352","highRank"
"99","3","27","false","safe","risky","safe","10","1530","bandit","low_value","bandit-task","111","632421","0.0-11.0-0.26","33885","276352","highRank"
"100","3","28","false","safe","risky","safe","90","1374","bandit","high_value","bandit-task","112","636655","0.0-11.0-0.27","33885","276352","highRank"
"101","3","29","false","risky","safe","safe","10","1247","bandit","low_value","bandit-task","113","640838","0.0-11.0-0.28","33885","276352","highRank"
"102","3","30","false","safe","risky","safe","10","1309","bandit","low_value","bandit-task","114","645456","0.0-11.0-0.29","33885","276352","highRank"
"103","3","31","false","safe","risky","safe","10","1329","bandit","low_value","bandit-task","115","649975","0.0-11.0-0.30","33885","276352","highRank"
"104","3","32","false","safe","risky","safe","10","1230","bandit","low_value","bandit-task","116","654054","0.0-11.0-0.31","33885","276352","highRank"
"105","3","33","false","risky","safe","risky","30","1945","bandit","decision","bandit-task","117","658949","0.0-11.0-0.32","33885","276352","highRank"
"106","3","34","false","safe","risky","safe","90","1214","bandit","high_value","bandit-task","118","662951","0.0-11.0-0.33","33885","276352","highRank"
"107","3","35","false","risky","safe","risky","30","1931","bandit","decision","bandit-task","119","667488","0.0-11.0-0.34","33885","276352","highRank"
"108","3","36","false","safe","risky","safe","10","1575","bandit","low_value","bandit-task","120","671378","0.0-11.0-0.35","33885","276352","highRank"
"109","4","1","false","risky","safe","risky","20","1614","bandit","low_value","bandit-task","122","680436","0.0-13.0-0.0","33885","276352","highRank"
"110","4","2","false","safe","risky","risky","0","887","bandit","low_value","bandit-task","123","684263","0.0-13.0-0.1","33885","276352","highRank"
"111","4","3","false","safe","risky","safe","90","1606","bandit","high_value","bandit-task","124","688688","0.0-13.0-0.2","33885","276352","highRank"
"112","4","4","false","safe","risky","safe","10","1445","bandit","low_value","bandit-task","125","693329","0.0-13.0-0.3","33885","276352","highRank"
"113","4","5","false","safe","risky","risky","30","2251","bandit","decision","bandit-task","126","698336","0.0-13.0-0.4","33885","276352","highRank"
"114","4","6","false","risky","safe","safe","50","1656","bandit","decision","bandit-task","127","702764","0.0-13.0-0.5","33885","276352","highRank"
"115","4","7","false","risky","safe","safe","10","1253","bandit","low_value","bandit-task","128","706929","0.0-13.0-0.6","33885","276352","highRank"
"116","4","8","false","risky","safe","safe","10","1215","bandit","low_value","bandit-task","129","711248","0.0-13.0-0.7","33885","276352","highRank"
"117","4","9","false","risky","safe","safe","10","1367","bandit","low_value","bandit-task","130","715997","0.0-13.0-0.8","33885","276352","highRank"
"118","4","10","false","risky","safe","safe","10","2385","bandit","low_value","bandit-task","131","721370","0.0-13.0-0.9","33885","276352","highRank"
"119","4","11","false","safe","risky","risky","70","1638","bandit","decision","bandit-task","132","726824","0.0-13.0-0.10","33885","276352","highRank"
"120","4","12","false","risky","safe","risky","70","1775","bandit","decision","bandit-task","133","731226","0.0-13.0-0.11","33885","276352","highRank"
"121","4","13","false","risky","safe","risky","30","1097","bandit","decision","bandit-task","134","735515","0.0-13.0-0.12","33885","276352","highRank"
"122","4","14","false","risky","safe","safe","50","1095","bandit","decision","bandit-task","135","739345","0.0-13.0-0.13","33885","276352","highRank"
"123","4","15","false","safe","risky","safe","90","1201","bandit","high_value","bandit-task","136","743452","0.0-13.0-0.14","33885","276352","highRank"
"124","4","16","false","risky","safe","safe","10","1396","bandit","low_value","bandit-task","137","748247","0.0-13.0-0.15","33885","276352","highRank"
"125","4","17","false","risky","safe","safe","10","1138","bandit","low_value","bandit-task","138","752363","0.0-13.0-0.16","33885","276352","highRank"
"126","4","18","false","safe","risky","safe","10","1224","bandit","low_value","bandit-task","139","756540","0.0-13.0-0.17","33885","276352","highRank"
"127","4","19","false","safe","risky","risky","70","2045","bandit","decision","bandit-task","140","761633","0.0-13.0-0.18","33885","276352","highRank"
"128","4","20","false","risky","safe","safe","90","1466","bandit","high_value","bandit-task","141","765789","0.0-13.0-0.19","33885","276352","highRank"
"129","4","21","false","risky","safe","safe","10","1132","bandit","low_value","bandit-task","142","770020","0.0-13.0-0.20","33885","276352","highRank"
"130","4","22","false","risky","safe","safe","10","1157","bandit","low_value","bandit-task","143","774625","0.0-13.0-0.21","33885","276352","highRank"
"131","4","23","false","risky","safe","risky","30","2101","bandit","decision","bandit-task","144","779911","0.0-13.0-0.22","33885","276352","highRank"
"132","4","24","false","risky","safe","safe","10","997","bandit","low_value","bandit-task","145","783655","0.0-13.0-0.23","33885","276352","highRank"
"133","4","25","false","risky","safe","safe","10","932","bandit","low_value","bandit-task","146","790266","0.0-13.0-0.24","33885","276352","highRank"
"134","4","26","false","risky","safe","safe","50","2119","bandit","decision","bandit-task","147","795412","0.0-13.0-0.25","33885","276352","highRank"
"135","4","27","false","risky","safe","safe","10","1057","bandit","low_value","bandit-task","148","799576","0.0-13.0-0.26","33885","276352","highRank"
"136","4","28","false","safe","risky","safe","50","1844","bandit","decision","bandit-task","149","804462","0.0-13.0-0.27","33885","276352","highRank"
"137","4","29","false","risky","safe","safe","10","1735","bandit","low_value","bandit-task","150","809228","0.0-13.0-0.28","33885","276352","highRank"
"138","4","30","false","risky","safe","safe","10","1093","bandit","low_value","bandit-task","151","813192","0.0-13.0-0.29","33885","276352","highRank"
"139","4","31","false","safe","risky","safe","10","1160","bandit","low_value","bandit-task","152","817255","0.0-13.0-0.30","33885","276352","highRank"
"140","4","32","false","safe","risky","safe","90","1572","bandit","high_value","bandit-task","153","821532","0.0-13.0-0.31","33885","276352","highRank"
"141","4","33","false","risky","safe","safe","50","2366","bandit","decision","bandit-task","154","827032","0.0-13.0-0.32","33885","276352","highRank"
"142","4","34","false","risky","safe","safe","10","1045","bandit","low_value","bandit-task","155","830776","0.0-13.0-0.33","33885","276352","highRank"
"143","4","35","false","safe","risky","risky","70","2266","bandit","decision","bandit-task","156","836187","0.0-13.0-0.34","33885","276352","highRank"
"144","4","36","false","risky","safe","safe","10","1225","bandit","low_value","bandit-task","157","840450","0.0-13.0-0.35","33885","276352","highRank"
"145","5","1","false","risky","safe","safe","10","1147","bandit","low_value","bandit-task","159","847271","0.0-15.0-0.0","33885","276352","highRank"
"146","5","2","false","risky","safe","safe","10","996","bandit","low_value","bandit-task","160","850911","0.0-15.0-0.1","33885","276352","highRank"
"147","5","3","false","safe","risky","safe","90","1305","bandit","high_value","bandit-task","161","854997","0.0-15.0-0.2","33885","276352","highRank"
"148","5","4","false","risky","safe","risky","70","1831","bandit","decision","bandit-task","162","859480","0.0-15.0-0.3","33885","276352","highRank"
"149","5","5","false","risky","safe","risky","0","2353","bandit","low_value","bandit-task","163","864585","0.0-15.0-0.4","33885","276352","highRank"
"150","5","6","false","safe","risky","safe","10","1272","bandit","low_value","bandit-task","164","869097","0.0-15.0-0.5","33885","276352","highRank"
"151","5","7","false","risky","safe","safe","90","1218","bandit","high_value","bandit-task","165","873024","0.0-15.0-0.6","33885","276352","highRank"
"152","5","8","false","risky","safe","safe","10","1121","bandit","low_value","bandit-task","166","876842","0.0-15.0-0.7","33885","276352","highRank"
"153","5","9","false","risky","safe","risky","30","1859","bandit","decision","bandit-task","167","881842","0.0-15.0-0.8","33885","276352","highRank"
"154","5","10","false","risky","safe","safe","50","887","bandit","decision","bandit-task","168","886209","0.0-15.0-0.9","33885","276352","highRank"
"155","5","11","false","risky","safe","safe","50","978","bandit","decision","bandit-task","169","890080","0.0-15.0-0.10","33885","276352","highRank"
"156","5","12","false","safe","risky","safe","10","1219","bandit","low_value","bandit-task","170","894035","0.0-15.0-0.11","33885","276352","highRank"
"157","5","13","false","safe","risky","safe","10","1184","bandit","low_value","bandit-task","171","897856","0.0-15.0-0.12","33885","276352","highRank"
"158","5","14","false","risky","safe","safe","90","1248","bandit","high_value","bandit-task","172","901918","0.0-15.0-0.13","33885","276352","highRank"
"159","5","15","false","risky","safe","safe","90","1046","bandit","high_value","bandit-task","173","906151","0.0-15.0-0.14","33885","276352","highRank"
"160","5","16","false","safe","risky","safe","10","1174","bandit","low_value","bandit-task","174","909963","0.0-15.0-0.15","33885","276352","highRank"
"161","5","17","false","safe","risky","safe","10","1105","bandit","low_value","bandit-task","175","913888","0.0-15.0-0.16","33885","276352","highRank"
"162","5","18","false","risky","safe","safe","10","1170","bandit","low_value","bandit-task","176","918584","0.0-15.0-0.17","33885","276352","highRank"
"163","5","19","false","risky","safe","risky","30","1752","bandit","decision","bandit-task","177","922991","0.0-15.0-0.18","33885","276352","highRank"
"164","5","20","false","safe","risky","safe","10","1236","bandit","low_value","bandit-task","178","926897","0.0-15.0-0.19","33885","276352","highRank"
"165","5","21","false","risky","safe","safe","50","1504","bandit","decision","bandit-task","179","932380","0.0-15.0-0.20","33885","276352","highRank"
"166","5","22","false","risky","safe","safe","50","1133","bandit","decision","bandit-task","180","936219","0.0-15.0-0.21","33885","276352","highRank"
"167","5","23","false","safe","risky","safe","10","1064","bandit","low_value","bandit-task","181","939926","0.0-15.0-0.22","33885","276352","highRank"
"168","5","24","false","risky","safe","risky","70","1379","bandit","decision","bandit-task","182","944776","0.0-15.0-0.23","33885","276352","highRank"
"169","5","25","false","risky","safe","risky","70","1227","bandit","decision","bandit-task","183","949022","0.0-15.0-0.24","33885","276352","highRank"
"170","5","26","false","risky","safe","safe","10","1217","bandit","low_value","bandit-task","184","952908","0.0-15.0-0.25","33885","276352","highRank"
"171","5","27","false","safe","risky","safe","50","1650","bandit","decision","bandit-task","185","957544","0.0-15.0-0.26","33885","276352","highRank"
"172","5","28","false","safe","risky","safe","10","1264","bandit","low_value","bandit-task","186","961529","0.0-15.0-0.27","33885","276352","highRank"
"173","5","29","false","safe","risky","safe","10","1065","bandit","low_value","bandit-task","187","965271","0.0-15.0-0.28","33885","276352","highRank"
"174","5","30","false","safe","risky","risky","30","1312","bandit","decision","bandit-task","188","969478","0.0-15.0-0.29","33885","276352","highRank"
"175","5","31","false","risky","safe","safe","10","1144","bandit","low_value","bandit-task","189","973807","0.0-15.0-0.30","33885","276352","highRank"
"176","5","32","false","risky","safe","risky","30","1381","bandit","decision","bandit-task","190","977963","0.0-15.0-0.31","33885","276352","highRank"
"177","5","33","false","risky","safe","safe","10","1073","bandit","low_value","bandit-task","191","981708","0.0-15.0-0.32","33885","276352","highRank"
"178","5","34","false","risky","safe","safe","10","1145","bandit","low_value","bandit-task","192","985672","0.0-15.0-0.33","33885","276352","highRank"
"179","5","35","false","safe","risky","safe","10","1063","bandit","low_value","bandit-task","193","989611","0.0-15.0-0.34","33885","276352","highRank"
"180","5","36","false","safe","risky","safe","10","1084","bandit","low_value","bandit-task","194","993438","0.0-15.0-0.35","33885","276352","highRank"
"181","5","37","false","risky","risky","risky","100","4324","bandit","catch","bandit-task","207","1146729","0.0-23.0-0.0","33885","276352","highRank"
"182","5","38","false","safe","safe","safe","90","2141","bandit","catch","bandit-task","208","1151759","0.0-23.0-0.1","33885","276352","highRank"
"183","5","39","false","risky","safe","risky","70","4120","bandit","catch","bandit-task","209","1158701","0.0-23.0-0.2","33885","276352","highRank"
"184","5","40","false","safe","safe","safe","90","1657","bandit","catch","bandit-task","210","1163441","0.0-23.0-0.3","33885","276352","highRank"
"185","5","41","false","safe","risky","safe","90","1474","bandit","catch","bandit-task","211","1168089","0.0-23.0-0.4","33885","276352","highRank"
"186","5","42","false","safe","risky","safe","90","1304","bandit","catch","bandit-task","212","1172583","0.0-23.0-0.5","33885","276352","highRank"
"187","5","43","false","safe","safe","safe","50","1311","bandit","catch","bandit-task","213","1177149","0.0-23.0-0.6","33885","276352","highRank"
"188","5","44","false","safe","risky","risky","80","1252","bandit","catch","bandit-task","214","1181461","0.0-23.0-0.7","33885","276352","highRank"
"189","5","45","false","risky","risky","risky","70","1964","bandit","catch","bandit-task","215","1187807","0.0-23.0-0.8","33885","276352","highRank"
"190","5","46","false","risky","risky","risky","80","1244","bandit","catch","bandit-task","216","1192507","0.0-23.0-0.9","33885","276352","highRank"
"191","5","47","false","safe","risky","risky","80","1903","bandit","catch","bandit-task","217","1197229","0.0-23.0-0.10","33885","276352","highRank"
"192","5","48","false","risky","safe","safe","50","1063","bandit","catch","bandit-task","218","1200983","0.0-23.0-0.11","33885","276352","highRank"
"193","5","49","false","safe","safe","safe","50","1099","bandit","catch","bandit-task","219","1204987","0.0-23.0-0.12","33885","276352","highRank"
"194","5","50","false","safe","safe","safe","90","1075","bandit","catch","bandit-task","220","1208748","0.0-23.0-0.13","33885","276352","highRank"
"195","5","51","false","safe","risky","risky","80","1156","bandit","catch","bandit-task","221","1213340","0.0-23.0-0.14","33885","276352","highRank"
"196","5","52","false","risky","safe","risky","100","1524","bandit","catch","bandit-task","222","1217832","0.0-23.0-0.15","33885","276352","highRank"
"197","5","53","false","risky","risky","risky","30","1056","bandit","catch","bandit-task","223","1221680","0.0-23.0-0.16","33885","276352","highRank"
"198","5","54","false","safe","safe","safe","90","1662","bandit","catch","bandit-task","224","1227486","0.0-23.0-0.17","33885","276352","highRank"
"199","5","55","false","risky","safe","safe","90","1690","bandit","catch","bandit-task","225","1232433","0.0-23.0-0.18","33885","276352","highRank"
"200","5","56","false","risky","safe","safe","50","1111","bandit","catch","bandit-task","226","1236232","0.0-23.0-0.19","33885","276352","highRank"
"201","5","57","false","risky","risky","risky","80","1336","bandit","catch","bandit-task","227","1240351","0.0-23.0-0.20","33885","276352","highRank"
"202","5","58","false","risky","safe","safe","90","2148","bandit","catch","bandit-task","228","1245428","0.0-23.0-0.21","33885","276352","highRank"
"203","5","59","false","safe","risky","risky","70","2612","bandit","catch","bandit-task","229","1251063","0.0-23.0-0.22","33885","276352","highRank"
"204","5","60","false","risky","risky","risky","80","1491","bandit","catch","bandit-task","230","1255266","0.0-23.0-0.23","33885","276352","highRank"
