"banditTrial","block","trialInBlock","singleOption","leftOption","rightOption","choice","feedback","rt","task","choiceType","trial_type","trial_index","time_elapsed","internal_node_id","participant","turkCode","condition"
"1","1","1","false","risky","safe","risky","0","1655","bandit","low_value","bandit-task","8","193225","0.0-7.0-0.0","50846","647944","highRank"
"2","1","2","false","risky","safe","safe","90","1854","bandit","high_value","bandit-task","9","198191","0.0-7.0-0.1","50846","647944","highRank"
"3","1","3","false","safe","risky","risky","0","2045","bandit","low_value","bandit-task","10","203320","0.0-7.0-0.2","50846","647944","highRank"
"4","1","4","false","safe","risky","safe","10","1099","bandit","low_value","bandit-task","11","207328","0.0-7.0-0.3","50846","647944","highRank"
"5","1","5","false","safe","risky","risky","80","2607","bandit","high_value","bandit-task","12","212760","0.0-7.0-0.4","50846","647944","highRank"
"6","1","6","false","risky","safe","safe","10","1891","bandit","low_value","bandit-task","13","217418","0.0-7.0-0.5","50846","647944","highRank"
"7","1","7","false","safe","risky","safe","50","1446","bandit","decision","bandit-task","14","221644","0.0-7.0-0.6","50846","647944","highRank"
"8","1","8","false","risky","safe","safe","10","1419","bandit","low_value","bandit-task","15","225775","0.0-7.0-0.7","50846","647944","highRank"
"9","1","9","false","risky","safe","safe","50","1365","bandit","decision","bandit-task","16","229762","0.0-7.0-0.8","50846","647944","highRank"
"10","1","10","false","safe","risky","risky","30","1662","bandit","decision","bandit-task","17","234167","0.0-7.0-0.9","50846","647944","highRank"
"11","1","11","false","risky","safe","safe","10","1451","bandit","low_value","bandit-task","18","238330","0.0-7.0-0.10","50846","647944","highRank"
"12","1","12","false","safe","risky","safe","10","1651","bandit","low_value","bandit-task","19","242593","0.0-7.0-0.11","50846","647944","highRank"
"13","1","13","false","risky","safe","safe","50","986","bandit","decision","bandit-task","20","246437","0.0-7.0-0.12","50846","647944","highRank"
"14","1","14","false","safe","risky","safe","10","1594","bandit","low_value","bandit-task","21","250632","0.0-7.0-0.13","50846","647944","highRank"
"15","1","15","false","risky","safe","safe","10","1315","bandit","low_value","bandit-task","22","254679","0.0-7.0-0.14","50846","647944","highRank"
"16","1","16","false","safe","risky","safe","50","1010","bandit","decision","bandit-task","23","258486","0.0-7.0-0.15","50846","647944","highRank"
"17","1","17","false","safe","risky","safe","10","1321","bandit","low_value","bandit-task","24","262612","0.0-7.0-0.16","50846","647944","highRank"
"18","1","18","false","safe","risky","safe","50","1031","bandit","decision","bandit-task","25","266529","0.0-7.0-0.17","50846","647944","highRank"
"19","1","19","false","risky","safe","safe","10","1235","bandit","low_value","bandit-task","26","270633","0.0-7.0-0.18","50846","647944","highRank"
"20","1","20","false","safe","risky","safe","10","1974","bandit","low_value","bandit-task","27","275192","0.0-7.0-0.19","50846","647944","highRank"
"21","1","21","false","risky","safe","safe","10","1381","bandit","low_value","bandit-task","28","279436","0.0-7.0-0.20","50846","647944","highRank"
"22","1","22","false","safe","risky","safe","50","1231","bandit","decision","bandit-task","29","284062","0.0-7.0-0.21","50846","647944","highRank"
"23","1","23","false","safe","risky","safe","10","2288","bandit","low_value","bandit-task","30","289283","0.0-7.0-0.22","50846","647944","highRank"
"24","1","24","false","risky","safe","safe","50","1216","bandit","decision","bandit-task","31","293603","0.0-7.0-0.23","50846","647944","highRank"
"25","1","25","false","safe","risky","safe","50","1159","bandit","decision","bandit-task","32","297483","0.0-7.0-0.24","50846","647944","highRank"
"26","1","26","false","safe","risky","safe","10","1497","bandit","low_value","bandit-task","33","301631","0.0-7.0-0.25","50846","647944","highRank"
"27","1","27","false","risky","safe","safe","10","1625","bandit","low_value","bandit-task","34","305990","0.0-7.0-0.26","50846","647944","highRank"
"28","1","28","false","safe","risky","safe","50","1179","bandit","decision","bandit-task","35","310643","0.0-7.0-0.27","50846","647944","highRank"
"29","1","29","false","safe","risky","safe","10","1630","bandit","low_value","bandit-task","36","315218","0.0-7.0-0.28","50846","647944","highRank"
"30","1","30","false","safe","risky","safe","50","1017","bandit","decision","bandit-task","37","319162","0.0-7.0-0.29","50846","647944","highRank"
"31","1","31","false","safe","risky","safe","10","1468","bandit","low_value","bandit-task","38","323930","0.0-7.0-0.30","50846","647944","highRank"
"32","1","32","false","risky","safe","safe","50","1260","bandit","decision","bandit-task","39","328882","0.0-7.0-0.31","50846","647944","highRank"
"33","1","33","false","risky","safe","risky","100","3945","bandit","high_value","bandit-task","40","336235","0.0-7.0-0.32","50846","647944","highRank"
"34","1","34","false","safe","risky","safe","10","1264","bandit","low_value","bandit-task","41","340702","0.0-7.0-0.33","50846","647944","highRank"
"35","1","35","false","risky","safe","safe","10","1432","bandit","low_value","bandit-task","42","345059","0.0-7.0-0.34","50846","647944","highRank"
"36","1","36","false","risky","safe","risky","80","1089","bandit","high_value","bandit-task","43","348835","0.0-7.0-0.35","50846","647944","highRank"
"37","2","1","false","risky","safe","risky","80","1763","bandit","high_value","bandit-task","45","361542","0.0-9.0-0.0","50846","647944","highRank"
"38","2","2","false","risky","safe","safe","10","2462","bandit","low_value","bandit-task","46","366570","0.0-9.0-0.1","50846","647944","highRank"
"39","2","3","false","risky","safe","safe","10","1020","bandit","low_value","bandit-task","47","370455","0.0-9.0-0.2","50846","647944","highRank"
"40","2","4","false","risky","safe","safe","10","1378","bandit","low_value","bandit-task","48","374372","0.0-9.0-0.3","50846","647944","highRank"
"41","2","5","false","safe","risky","safe","50","1150","bandit","decision","bandit-task","49","378047","0.0-9.0-0.4","50846","647944","highRank"
"42","2","6","false","safe","risky","safe","10","1533","bandit","low_value","bandit-task","50","382955","0.0-9.0-0.5","50846","647944","highRank"
"43","2","7","false","safe","risky","safe","10","1319","bandit","low_value","bandit-task","51","387645","0.0-9.0-0.6","50846","647944","highRank"
"44","2","8","false","safe","risky","safe","50","1539","bandit","decision","bandit-task","52","392359","0.0-9.0-0.7","50846","647944","highRank"
"45","2","9","false","safe","risky","safe","50","1174","bandit","decision","bandit-task","53","396409","0.0-9.0-0.8","50846","647944","highRank"
"46","2","10","false","risky","safe","safe","10","1392","bandit","low_value","bandit-task","54","401233","0.0-9.0-0.9","50846","647944","highRank"
"47","2","11","false","risky","safe","risky","100","1664","bandit","high_value","bandit-task","55","405508","0.0-9.0-0.10","50846","647944","highRank"
"48","2","12","false","risky","safe","safe","50","2850","bandit","decision","bandit-task","56","411020","0.0-9.0-0.11","50846","647944","highRank"
"49","2","13","false","risky","safe","safe","10","1592","bandit","low_value","bandit-task","57","415802","0.0-9.0-0.12","50846","647944","highRank"
"50","2","14","false","safe","risky","safe","50","1712","bandit","decision","bandit-task","58","420343","0.0-9.0-0.13","50846","647944","highRank"
"51","2","15","false","risky","safe","safe","10","1253","bandit","low_value","bandit-task","59","424513","0.0-9.0-0.14","50846","647944","highRank"
"52","2","16","false","risky","safe","safe","10","1620","bandit","low_value","bandit-task","60","428897","0.0-9.0-0.15","50846","647944","highRank"
"53","2","17","false","risky","safe","safe","10","1450","bandit","low_value","bandit-task","61","433471","0.0-9.0-0.16","50846","647944","highRank"
"54","2","18","false","safe","risky","safe","10","1726","bandit","low_value","bandit-task","62","438169","0.0-9.0-0.17","50846","647944","highRank"
"55","2","19","false","risky","safe","safe","50","2045","bandit","decision","bandit-task","63","443120","0.0-9.0-0.18","50846","647944","highRank"
"56","2","20","false","safe","risky","safe","50","1457","bandit","decision","bandit-task","64","447681","0.0-9.0-0.19","50846","647944","highRank"
"57","2","21","false","safe","risky","safe","50","1073","bandit","decision","bandit-task","65","451604","0.0-9.0-0.20","50846","647944","highRank"
"58","2","22","false","risky","safe","safe","10","1251","bandit","low_value","bandit-task","66","456131","0.0-9.0-0.21","50846","647944","highRank"
"59","2","23","false","safe","risky","safe","10","1519","bandit","low_value","bandit-task","67","460900","0.0-9.0-0.22","50846","647944","highRank"
"60","2","24","false","safe","risky","safe","50","1171","bandit","decision","bandit-task","68","464886","0.0-9.0-0.23","50846","647944","highRank"
"61","2","25","false","safe","risky","safe","50","1476","bandit","decision","bandit-task","69","468950","0.0-9.0-0.24","50846","647944","highRank"
"62","2","26","false","risky","safe","safe","10","1921","bandit","low_value","bandit-task","70","474027","0.0-9.0-0.25","50846","647944","highRank"
"63","2","27","false","safe","risky","risky","100","2292","bandit","high_value","bandit-task","71","479072","0.0-9.0-0.26","50846","647944","highRank"
"64","2","28","false","safe","risky","safe","10","1420","bandit","low_value","bandit-task","72","483798","0.0-9.0-0.27","50846","647944","highRank"
"65","2","29","false","risky","safe","safe","10","1342","bandit","low_value","bandit-task","73","487749","0.0-9.0-0.28","50846","647944","highRank"
"66","2","30","false","risky","safe","safe","10","1165","bandit","low_value","bandit-task","74","491569","0.0-9.0-0.29","50846","647944","highRank"
"67","2","31","false","risky","safe","safe","10","1152","bandit","low_value","bandit-task","75","495992","0.0-9.0-0.30","50846","647944","highRank"
"68","2","32","false","risky","safe","risky","80","1584","bandit","high_value","bandit-task","76","500302","0.0-9.0-0.31","50846","647944","highRank"
"69","2","33","false","safe","risky","safe","10","1481","bandit","low_value","bandit-task","77","504978","0.0-9.0-0.32","50846","647944","highRank"
"70","2","34","false","safe","risky","safe","10","1589","bandit","low_value","bandit-task","78","510435","0.0-9.0-0.33","50846","647944","highRank"
"71","2","35","false","risky","safe","safe","50","1881","bandit","decision","bandit-task","79","515321","0.0-9.0-0.34","50846","647944","highRank"
"72","2","36","false","risky","safe","safe","50","1309","bandit","decision","bandit-task","80","519766","0.0-9.0-0.35","50846","647944","highRank"
"73","3","1","false","safe","risky","safe","10","2562","bandit","low_value","bandit-task","82","537089","0.0-11.0-0.0","50846","647944","highRank"
"74","3","2","false","safe","risky","safe","10","1202","bandit","low_value","bandit-task","83","540982","0.0-11.0-0.1","50846","647944","highRank"
"75","3","3","false","safe","risky","risky","80","2012","bandit","high_value","bandit-task","84","545691","0.0-11.0-0.2","50846","647944","highRank"
"76","3","4","false","safe","risky","safe","50","929","bandit","decision","bandit-task","85","549282","0.0-11.0-0.3","50846","647944","highRank"
"77","3","5","false","risky","safe","safe","50","997","bandit","decision","bandit-task","86","552796","0.0-11.0-0.4","50846","647944","highRank"
"78","3","6","false","safe","risky","risky","100","1127","bandit","high_value","bandit-task","87","556512","0.0-11.0-0.5","50846","647944","highRank"
"79","3","7","false","risky","safe","safe","50","1069","bandit","decision","bandit-task","88","560456","0.0-11.0-0.6","50846","647944","highRank"
"80","3","8","false","risky","safe","safe","50","1046","bandit","decision","bandit-task","89","564169","0.0-11.0-0.7","50846","647944","highRank"
"81","3","9","false","risky","safe","safe","10","1455","bandit","low_value","bandit-task","90","569238","0.0-11.0-0.8","50846","647944","highRank"
"82","3","10","false","safe","risky","safe","10","1374","bandit","low_value","bandit-task","91","573575","0.0-11.0-0.9","50846","647944","highRank"
"83","3","11","false","risky","safe","safe","10","1154","bandit","low_value","bandit-task","92","578455","0.0-11.0-0.10","50846","647944","highRank"
"84","3","12","false","safe","risky","safe","10","1274","bandit","low_value","bandit-task","93","582822","0.0-11.0-0.11","50846","647944","highRank"
"85","3","13","false","risky","safe","safe","10","1343","bandit","low_value","bandit-task","94","587930","0.0-11.0-0.12","50846","647944","highRank"
"86","3","14","false","safe","risky","safe","50","1985","bandit","decision","bandit-task","95","593641","0.0-11.0-0.13","50846","647944","highRank"
"87","3","15","false","risky","safe","safe","50","1014","bandit","decision","bandit-task","96","598110","0.0-11.0-0.14","50846","647944","highRank"
"88","3","16","false","risky","safe","safe","10","1513","bandit","low_value","bandit-task","97","602741","0.0-11.0-0.15","50846","647944","highRank"
"89","3","17","false","safe","risky","safe","50","1153","bandit","decision","bandit-task","98","607257","0.0-11.0-0.16","50846","647944","highRank"
"90","3","18","false","risky","safe","safe","10","4367","bandit","low_value","bandit-task","99","614512","0.0-11.0-0.17","50846","647944","highRank"
"91","3","19","false","risky","safe","risky","80","2322","bandit","high_value","bandit-task","100","619588","0.0-11.0-0.18","50846","647944","highRank"
"92","3","20","false","safe","risky","safe","10","1766","bandit","low_value","bandit-task","101","624067","0.0-11.0-0.19","50846","647944","highRank"
"93","3","21","false","risky","safe","safe","10","1586","bandit","low_value","bandit-task","102","628454","0.0-11.0-0.20","50846","647944","highRank"
"94","3","22","false","risky","safe","safe","50","1253","bandit","decision","bandit-task","103","633068","0.0-11.0-0.21","50846","647944","highRank"
"95","3","23","false","risky","safe","safe","10","3947","bandit","low_value","bandit-task","104","639817","0.0-11.0-0.22","50846","647944","highRank"
"96","3","24","false","safe","risky","safe","50","1180","bandit","decision","bandit-task","105","645054","0.0-11.0-0.23","50846","647944","highRank"
"97","3","25","false","risky","safe","safe","10","1984","bandit","low_value","bandit-task","106","650072","0.0-11.0-0.24","50846","647944","highRank"
"98","3","26","false","risky","safe","safe","50","2188","bandit","decision","bandit-task","107","654944","0.0-11.0-0.25","50846","647944","highRank"
"99","3","27","false","risky","safe","safe","10","1365","bandit","low_value","bandit-task","108","659896","0.0-11.0-0.26","50846","647944","highRank"
"100","3","28","false","risky","safe","safe","10","940","bandit","low_value","bandit-task","109","663464","0.0-11.0-0.27","50846","647944","highRank"
"101","3","29","false","safe","risky","safe","10","1029","bandit","low_value","bandit-task","110","667523","0.0-11.0-0.28","50846","647944","highRank"
"102","3","30","false","safe","risky","safe","10","1268","bandit","low_value","bandit-task","111","672326","0.0-11.0-0.29","50846","647944","highRank"
"103","3","31","false","risky","safe","safe","10","1164","bandit","low_value","bandit-task","112","676961","0.0-11.0-0.30","50846","647944","highRank"
"104","3","32","false","safe","risky","safe","50","1667","bandit","decision","bandit-task","113","682336","0.0-11.0-0.31","50846","647944","highRank"
"105","3","33","false","risky","safe","risky","80","1527","bandit","high_value","bandit-task","114","687251","0.0-11.0-0.32","50846","647944","highRank"
"106","3","34","false","risky","safe","safe","10","2216","bandit","low_value","bandit-task","115","692928","0.0-11.0-0.33","50846","647944","highRank"
"107","3","35","false","risky","safe","safe","50","1603","bandit","decision","bandit-task","116","697919","0.0-11.0-0.34","50846","647944","highRank"
"108","3","36","false","risky","safe","safe","10","2239","bandit","low_value","bandit-task","117","703766","0.0-11.0-0.35","50846","647944","highRank"
"109","4","1","false","risky","safe","safe","10","1441","bandit","low_value","bandit-task","119","722139","0.0-13.0-0.0","50846","647944","highRank"
"110","4","2","false","risky","safe","safe","10","858","bandit","low_value","bandit-task","120","725556","0.0-13.0-0.1","50846","647944","highRank"
"111","4","3","false","safe","risky","safe","50","936","bandit","decision","bandit-task","121","730203","0.0-13.0-0.2","50846","647944","highRank"
"112","4","4","false","safe","risky","safe","10","1174","bandit","low_value","bandit-task","122","734307","0.0-13.0-0.3","50846","647944","highRank"
"113","4","5","false","safe","risky","risky","80","1379","bandit","high_value","bandit-task","123","738380","0.0-13.0-0.4","50846","647944","highRank"
"114","4","6","false","risky","safe","safe","10","1122","bandit","low_value","bandit-task","124","742769","0.0-13.0-0.5","50846","647944","highRank"
"115","4","7","false","risky","safe","safe","10","1025","bandit","low_value","bandit-task","125","748643","0.0-13.0-0.6","50846","647944","highRank"
"116","4","8","false","risky","safe","safe","10","1056","bandit","low_value","bandit-task","126","753096","0.0-13.0-0.7","50846","647944","highRank"
"117","4","9","false","safe","risky","risky","80","1709","bandit","high_value","bandit-task","127","757664","0.0-13.0-0.8","50846","647944","highRank"
"118","4","10","false","safe","risky","safe","50","1919","bandit","decision","bandit-task","128","762411","0.0-13.0-0.9","50846","647944","highRank"
"119","4","11","false","safe","risky","safe","50","1500","bandit","decision","bandit-task","129","767287","0.0-13.0-0.10","50846","647944","highRank"
"120","4","12","false","risky","safe","safe","50","932","bandit","decision","bandit-task","130","773147","0.0-13.0-0.11","50846","647944","highRank"
"121","4","13","false","safe","risky","safe","10","5222","bandit","low_value","bandit-task","131","781294","0.0-13.0-0.12","50846","647944","highRank"
"122","4","14","false","safe","risky","safe","10","1774","bandit","low_value","bandit-task","132","786478","0.0-13.0-0.13","50846","647944","highRank"
"123","4","15","false","safe","risky","safe","50","2240","bandit","decision","bandit-task","133","792794","0.0-13.0-0.14","50846","647944","highRank"
"124","4","16","false","risky","safe","safe","10","4150","bandit","low_value","bandit-task","134","800041","0.0-13.0-0.15","50846","647944","highRank"
"125","4","17","false","risky","safe","safe","10","1115","bandit","low_value","bandit-task","135","804463","0.0-13.0-0.16","50846","647944","highRank"
"126","4","18","false","risky","safe","safe","10","1461","bandit","low_value","bandit-task","136","808638","0.0-13.0-0.17","50846","647944","highRank"
"127","4","19","false","safe","risky","safe","50","1215","bandit","decision","bandit-task","137","813349","0.0-13.0-0.18","50846","647944","highRank"
"128","4","20","false","risky","safe","safe","50","1141","bandit","decision","bandit-task","138","817643","0.0-13.0-0.19","50846","647944","highRank"
"129","4","21","false","safe","risky","safe","10","2190","bandit","low_value","bandit-task","139","823051","0.0-13.0-0.20","50846","647944","highRank"
"130","4","22","false","safe","risky","safe","10","1314","bandit","low_value","bandit-task","140","827565","0.0-13.0-0.21","50846","647944","highRank"
"131","4","23","false","risky","safe","safe","10","1122","bandit","low_value","bandit-task","141","831813","0.0-13.0-0.22","50846","647944","highRank"
"132","4","24","false","risky","safe","safe","50","2126","bandit","decision","bandit-task","142","836800","0.0-13.0-0.23","50846","647944","highRank"
"133","4","25","false","safe","risky","safe","10","3262","bandit","low_value","bandit-task","143","844123","0.0-13.0-0.24","50846","647944","highRank"
"134","4","26","false","safe","risky","safe","50","1219","bandit","decision","bandit-task","144","848645","0.0-13.0-0.25","50846","647944","highRank"
"135","4","27","false","safe","risky","safe","10","1164","bandit","low_value","bandit-task","145","852976","0.0-13.0-0.26","50846","647944","highRank"
"136","4","28","false","risky","safe","safe","50","1378","bandit","decision","bandit-task","146","857747","0.0-13.0-0.27","50846","647944","highRank"
"137","4","29","false","safe","risky","risky","100","2073","bandit","high_value","bandit-task","147","862491","0.0-13.0-0.28","50846","647944","highRank"
"138","4","30","false","risky","safe","safe","10","1408","bandit","low_value","bandit-task","148","867051","0.0-13.0-0.29","50846","647944","highRank"
"139","4","31","false","safe","risky","risky","80","1101","bandit","high_value","bandit-task","149","871376","0.0-13.0-0.30","50846","647944","highRank"
"140","4","32","false","safe","risky","safe","10","1327","bandit","low_value","bandit-task","150","879043","0.0-13.0-0.31","50846","647944","highRank"
"141","4","33","false","safe","risky","safe","50","1132","bandit","decision","bandit-task","151","883426","0.0-13.0-0.32","50846","647944","highRank"
"142","4","34","false","risky","safe","safe","50","969","bandit","decision","bandit-task","152","887881","0.0-13.0-0.33","50846","647944","highRank"
"143","4","35","false","safe","risky","safe","10","1120","bandit","low_value","bandit-task","153","891623","0.0-13.0-0.34","50846","647944","highRank"
"144","4","36","false","risky","safe","safe","10","972","bandit","low_value","bandit-task","154","895639","0.0-13.0-0.35","50846","647944","highRank"
"145","5","1","false","risky","safe","risky","100","1042","bandit","high_value","bandit-task","156","912229","0.0-15.0-0.0","50846","647944","highRank"
"146","5","2","false","risky","safe","safe","10","1077","bandit","low_value","bandit-task","157","916238","0.0-15.0-0.1","50846","647944","highRank"
"147","5","3","false","safe","risky","safe","50","1035","bandit","decision","bandit-task","158","920261","0.0-15.0-0.2","50846","647944","highRank"
"148","5","4","false","safe","risky","safe","50","1011","bandit","decision","bandit-task","159","924074","0.0-15.0-0.3","50846","647944","highRank"
"149","5","5","false","safe","risky","risky","80","1422","bandit","high_value","bandit-task","160","928216","0.0-15.0-0.4","50846","647944","highRank"
"150","5","6","false","risky","safe","risky","80","926","bandit","high_value","bandit-task","161","931979","0.0-15.0-0.5","50846","647944","highRank"
"151","5","7","false","risky","safe","safe","10","3238","bandit","low_value","bandit-task","162","937879","0.0-15.0-0.6","50846","647944","highRank"
"152","5","8","false","risky","safe","risky","80","1014","bandit","high_value","bandit-task","163","941983","0.0-15.0-0.7","50846","647944","highRank"
"153","5","9","false","risky","safe","safe","50","2034","bandit","decision","bandit-task","164","946755","0.0-15.0-0.8","50846","647944","highRank"
"154","5","10","false","risky","safe","safe","50","1133","bandit","decision","bandit-task","165","951829","0.0-15.0-0.9","50846","647944","highRank"
"155","5","11","false","risky","safe","safe","10","952","bandit","low_value","bandit-task","166","955507","0.0-15.0-0.10","50846","647944","highRank"
"156","5","12","false","safe","risky","safe","10","1024","bandit","low_value","bandit-task","167","959674","0.0-15.0-0.11","50846","647944","highRank"
"157","5","13","false","risky","safe","safe","10","987","bandit","low_value","bandit-task","168","963557","0.0-15.0-0.12","50846","647944","highRank"
"158","5","14","false","safe","risky","safe","50","1870","bandit","decision","bandit-task","169","968757","0.0-15.0-0.13","50846","647944","highRank"
"159","5","15","false","risky","safe","safe","10","1616","bandit","low_value","bandit-task","170","973654","0.0-15.0-0.14","50846","647944","highRank"
"160","5","16","false","safe","risky","safe","10","1271","bandit","low_value","bandit-task","171","978180","0.0-15.0-0.15","50846","647944","highRank"
"161","5","17","false","risky","safe","safe","10","2003","bandit","low_value","bandit-task","172","982805","0.0-15.0-0.16","50846","647944","highRank"
"162","5","18","false","risky","safe","safe","50","1234","bandit","decision","bandit-task","173","989383","0.0-15.0-0.17","50846","647944","highRank"
"163","5","19","false","safe","risky","safe","10","2810","bandit","low_value","bandit-task","174","994923","0.0-15.0-0.18","50846","647944","highRank"
"164","5","20","false","safe","risky","safe","10","1314","bandit","low_value","bandit-task","175","1003046","0.0-15.0-0.19","50846","647944","highRank"
"165","5","21","false","risky","safe","safe","50","3392","bandit","decision","bandit-task","176","1009131","0.0-15.0-0.20","50846","647944","highRank"
"166","5","22","false","risky","safe","safe","50","1145","bandit","decision","bandit-task","177","1013184","0.0-15.0-0.21","50846","647944","highRank"
"167","5","23","false","safe","risky","safe","10","1535","bandit","low_value","bandit-task","178","1018040","0.0-15.0-0.22","50846","647944","highRank"
"168","5","24","false","safe","risky","safe","10","1789","bandit","low_value","bandit-task","179","1022620","0.0-15.0-0.23","50846","647944","highRank"
"169","5","25","false","safe","risky","safe","10","1134","bandit","low_value","bandit-task","180","1026787","0.0-15.0-0.24","50846","647944","highRank"
"170","5","26","false","safe","risky","safe","10","1058","bandit","low_value","bandit-task","181","1030934","0.0-15.0-0.25","50846","647944","highRank"
"171","5","27","false","risky","safe","safe","10","1060","bandit","low_value","bandit-task","182","1035417","0.0-15.0-0.26","50846","647944","highRank"
"172","5","28","false","safe","risky","safe","50","2691","bandit","decision","bandit-task","183","1041014","0.0-15.0-0.27","50846","647944","highRank"
"173","5","29","false","safe","risky","safe","10","1546","bandit","low_value","bandit-task","184","1045374","0.0-15.0-0.28","50846","647944","highRank"
"174","5","30","false","safe","risky","safe","50","1551","bandit","decision","bandit-task","185","1049902","0.0-15.0-0.29","50846","647944","highRank"
"175","5","31","false","safe","risky","safe","10","1443","bandit","low_value","bandit-task","186","1054574","0.0-15.0-0.30","50846","647944","highRank"
"176","5","32","false","risky","safe","safe","10","1126","bandit","low_value","bandit-task","187","1058552","0.0-15.0-0.31","50846","647944","highRank"
"177","5","33","false","safe","risky","safe","10","980","bandit","low_value","bandit-task","188","1062354","0.0-15.0-0.32","50846","647944","highRank"
"178","5","34","false","risky","safe","safe","50","1429","bandit","decision","bandit-task","189","1066667","0.0-15.0-0.33","50846","647944","highRank"
"179","5","35","false","safe","risky","safe","50","3290","bandit","decision","bandit-task","190","1072795","0.0-15.0-0.34","50846","647944","highRank"
"180","5","36","false","safe","risky","safe","10","2327","bandit","low_value","bandit-task","191","1078017","0.0-15.0-0.35","50846","647944","highRank"
"181","5","37","false","safe","safe","safe","50","4022","bandit","catch","bandit-task","204","1189921","0.0-23.0-0.0","50846","647944","highRank"
"182","5","38","false","safe","risky","safe","90","3130","bandit","catch","bandit-task","205","1195943","0.0-23.0-0.1","50846","647944","highRank"
"183","5","39","false","risky","safe","safe","90","3813","bandit","catch","bandit-task","206","1202424","0.0-23.0-0.2","50846","647944","highRank"
"184","5","40","false","safe","risky","safe","50","1718","bandit","catch","bandit-task","207","1206898","0.0-23.0-0.3","50846","647944","highRank"
"185","5","41","false","safe","risky","risky","100","1446","bandit","catch","bandit-task","208","1211013","0.0-23.0-0.4","50846","647944","highRank"
"186","5","42","false","risky","risky","risky","30","2646","bandit","catch","bandit-task","209","1216336","0.0-23.0-0.5","50846","647944","highRank"
"187","5","43","false","safe","risky","risky","80","2136","bandit","catch","bandit-task","210","1221039","0.0-23.0-0.6","50846","647944","highRank"
"188","5","44","false","safe","safe","safe","50","2991","bandit","catch","bandit-task","211","1226615","0.0-23.0-0.7","50846","647944","highRank"
"189","5","45","false","risky","risky","risky","80","1629","bandit","catch","bandit-task","212","1230816","0.0-23.0-0.8","50846","647944","highRank"
"190","5","46","false","safe","safe","safe","90","2705","bandit","catch","bandit-task","213","1236296","0.0-23.0-0.9","50846","647944","highRank"
"191","5","47","false","risky","risky","risky","100","1439","bandit","catch","bandit-task","214","1240417","0.0-23.0-0.10","50846","647944","highRank"
"192","5","48","false","safe","risky","risky","70","3041","bandit","catch","bandit-task","215","1246038","0.0-23.0-0.11","50846","647944","highRank"
"193","5","49","false","risky","risky","risky","100","1284","bandit","catch","bandit-task","216","1249911","0.0-23.0-0.12","50846","647944","highRank"
"194","5","50","false","risky","risky","risky","70","1501","bandit","catch","bandit-task","217","1253997","0.0-23.0-0.13","50846","647944","highRank"
"195","5","51","false","safe","risky","safe","50","1811","bandit","catch","bandit-task","218","1258348","0.0-23.0-0.14","50846","647944","highRank"
"196","5","52","false","risky","safe","risky","80","1481","bandit","catch","bandit-task","219","1262387","0.0-23.0-0.15","50846","647944","highRank"
"197","5","53","false","safe","risky","risky","30","6660","bandit","catch","bandit-task","220","1271609","0.0-23.0-0.16","50846","647944","highRank"
"198","5","54","false","safe","risky","safe","90","1459","bandit","catch","bandit-task","221","1275649","0.0-23.0-0.17","50846","647944","highRank"
"199","5","55","false","safe","safe","safe","90","1547","bandit","catch","bandit-task","222","1279793","0.0-23.0-0.18","50846","647944","highRank"
"200","5","56","false","safe","safe","safe","90","1910","bandit","catch","bandit-task","223","1284301","0.0-23.0-0.19","50846","647944","highRank"
"201","5","57","false","risky","safe","risky","70","2132","bandit","catch","bandit-task","224","1289095","0.0-23.0-0.20","50846","647944","highRank"
"202","5","58","false","safe","safe","safe","50","2247","bandit","catch","bandit-task","225","1293875","0.0-23.0-0.21","50846","647944","highRank"
"203","5","59","false","risky","safe","risky","80","1275","bandit","catch","bandit-task","226","1297753","0.0-23.0-0.22","50846","647944","highRank"
"204","5","60","false","risky","risky","risky","100","1137","bandit","catch","bandit-task","227","1301434","0.0-23.0-0.23","50846","647944","highRank"
