"banditTrial","block","trialInBlock","singleOption","leftOption","rightOption","choice","feedback","rt","task","choiceType","trial_type","trial_index","time_elapsed","internal_node_id","participant","turkCode","condition"
"1","1","1","false","safe","risky","safe","90","6772","bandit","high_value","bandit-task","8","315112","0.0-7.0-0.0","5687","881118","highRank"
"2","1","2","false","safe","risky","safe","10","1461","bandit","low_value","bandit-task","9","319467","0.0-7.0-0.1","5687","881118","highRank"
"3","1","3","false","risky","safe","risky","100","1527","bandit","high_value","bandit-task","10","323989","0.0-7.0-0.2","5687","881118","highRank"
"4","1","4","false","safe","risky","risky","20","1494","bandit","low_value","bandit-task","11","328389","0.0-7.0-0.3","5687","881118","highRank"
"5","1","5","false","safe","risky","safe","50","1380","bandit","decision","bandit-task","12","332438","0.0-7.0-0.4","5687","881118","highRank"
"6","1","6","false","risky","safe","risky","0","1684","bandit","low_value","bandit-task","13","336712","0.0-7.0-0.5","5687","881118","highRank"
"7","1","7","false","risky","safe","safe","10","1056","bandit","low_value","bandit-task","14","344004","0.0-7.0-0.6","5687","881118","highRank"
"8","1","8","false","safe","risky","risky","70","3867","bandit","decision","bandit-task","15","352327","0.0-7.0-0.7","5687","881118","highRank"
"9","1","9","false","risky","safe","risky","0","1505","bandit","low_value","bandit-task","16","356658","0.0-7.0-0.8","5687","881118","highRank"
"10","1","10","false","safe","risky","safe","10","1168","bandit","low_value","bandit-task","17","360543","0.0-7.0-0.9","5687","881118","highRank"
"11","1","11","false","safe","risky","risky","30","1401","bandit","decision","bandit-task","18","365178","0.0-7.0-0.10","5687","881118","highRank"
"12","1","12","false","safe","risky","safe","10","1558","bandit","low_value","bandit-task","19","369496","0.0-7.0-0.11","5687","881118","highRank"
"13","1","13","false","risky","safe","risky","70","1719","bandit","decision","bandit-task","20","374153","0.0-7.0-0.12","5687","881118","highRank"
"14","1","14","false","risky","safe","risky","70","942","bandit","decision","bandit-task","21","377899","0.0-7.0-0.13","5687","881118","highRank"
"15","1","15","false","risky","safe","risky","30","864","bandit","decision","bandit-task","22","381829","0.0-7.0-0.14","5687","881118","highRank"
"16","1","16","false","safe","risky","safe","50","1017","bandit","decision","bandit-task","23","385740","0.0-7.0-0.15","5687","881118","highRank"
"17","1","17","false","risky","safe","safe","10","944","bandit","low_value","bandit-task","24","389779","0.0-7.0-0.16","5687","881118","highRank"
"18","1","18","false","risky","safe","safe","10","1124","bandit","low_value","bandit-task","25","394663","0.0-7.0-0.17","5687","881118","highRank"
"19","1","19","false","risky","safe","safe","10","964","bandit","low_value","bandit-task","26","398633","0.0-7.0-0.18","5687","881118","highRank"
"20","1","20","false","safe","risky","risky","20","1145","bandit","low_value","bandit-task","27","402450","0.0-7.0-0.19","5687","881118","highRank"
"21","1","21","false","risky","safe","risky","0","851","bandit","low_value","bandit-task","28","406026","0.0-7.0-0.20","5687","881118","highRank"
"22","1","22","false","risky","safe","safe","10","1505","bandit","low_value","bandit-task","29","410221","0.0-7.0-0.21","5687","881118","highRank"
"23","1","23","false","risky","safe","risky","70","1270","bandit","decision","bandit-task","30","414981","0.0-7.0-0.22","5687","881118","highRank"
"24","1","24","false","safe","risky","safe","90","3923","bandit","high_value","bandit-task","31","421539","0.0-7.0-0.23","5687","881118","highRank"
"25","1","25","false","safe","risky","risky","0","1641","bandit","low_value","bandit-task","32","425860","0.0-7.0-0.24","5687","881118","highRank"
"26","1","26","false","risky","safe","safe","10","920","bandit","low_value","bandit-task","33","430045","0.0-7.0-0.25","5687","881118","highRank"
"27","1","27","false","risky","safe","safe","50","1415","bandit","decision","bandit-task","34","434060","0.0-7.0-0.26","5687","881118","highRank"
"28","1","28","false","risky","safe","risky","70","1348","bandit","decision","bandit-task","35","440395","0.0-7.0-0.27","5687","881118","highRank"
"29","1","29","false","risky","safe","risky","70","1157","bandit","decision","bandit-task","36","444208","0.0-7.0-0.28","5687","881118","highRank"
"30","1","30","false","safe","risky","safe","10","1405","bandit","low_value","bandit-task","37","448900","0.0-7.0-0.29","5687","881118","highRank"
"31","1","31","false","safe","risky","risky","20","1584","bandit","low_value","bandit-task","38","454300","0.0-7.0-0.30","5687","881118","highRank"
"32","1","32","false","safe","risky","risky","20","3372","bandit","low_value","bandit-task","39","460948","0.0-7.0-0.31","5687","881118","highRank"
"33","1","33","false","safe","risky","risky","100","1427","bandit","high_value","bandit-task","40","467496","0.0-7.0-0.32","5687","881118","highRank"
"34","1","34","false","safe","risky","risky","70","1156","bandit","decision","bandit-task","41","473796","0.0-7.0-0.33","5687","881118","highRank"
"35","1","35","false","safe","risky","risky","20","1989","bandit","low_value","bandit-task","42","478895","0.0-7.0-0.34","5687","881118","highRank"
"36","1","36","false","safe","risky","risky","20","1052","bandit","low_value","bandit-task","43","483202","0.0-7.0-0.35","5687","881118","highRank"
"37","2","1","false","risky","safe","risky","80","3845","bandit","high_value","bandit-task","45","493754","0.0-9.0-0.0","5687","881118","highRank"
"38","2","2","false","risky","safe","safe","10","2225","bandit","low_value","bandit-task","46","501293","0.0-9.0-0.1","5687","881118","highRank"
"39","2","3","false","risky","safe","safe","10","1032","bandit","low_value","bandit-task","47","505218","0.0-9.0-0.2","5687","881118","highRank"
"40","2","4","false","risky","safe","safe","10","1000","bandit","low_value","bandit-task","48","509471","0.0-9.0-0.3","5687","881118","highRank"
"41","2","5","false","risky","safe","safe","50","1436","bandit","decision","bandit-task","49","513995","0.0-9.0-0.4","5687","881118","highRank"
"42","2","6","false","safe","risky","safe","10","1032","bandit","low_value","bandit-task","50","519891","0.0-9.0-0.5","5687","881118","highRank"
"43","2","7","false","risky","safe","safe","50","1245","bandit","decision","bandit-task","51","524819","0.0-9.0-0.6","5687","881118","highRank"
"44","2","8","false","safe","risky","safe","10","1671","bandit","low_value","bandit-task","52","529665","0.0-9.0-0.7","5687","881118","highRank"
"45","2","9","false","risky","safe","safe","10","898","bandit","low_value","bandit-task","53","533277","0.0-9.0-0.8","5687","881118","highRank"
"46","2","10","false","safe","risky","risky","30","943","bandit","decision","bandit-task","54","537159","0.0-9.0-0.9","5687","881118","highRank"
"47","2","11","false","safe","risky","risky","20","920","bandit","low_value","bandit-task","55","540657","0.0-9.0-0.10","5687","881118","highRank"
"48","2","12","false","safe","risky","risky","70","1100","bandit","decision","bandit-task","56","544616","0.0-9.0-0.11","5687","881118","highRank"
"49","2","13","false","safe","risky","risky","70","1167","bandit","decision","bandit-task","57","548355","0.0-9.0-0.12","5687","881118","highRank"
"50","2","14","false","risky","safe","safe","10","1029","bandit","low_value","bandit-task","58","551919","0.0-9.0-0.13","5687","881118","highRank"
"51","2","15","false","safe","risky","risky","100","1538","bandit","high_value","bandit-task","59","557700","0.0-9.0-0.14","5687","881118","highRank"
"52","2","16","false","safe","risky","risky","0","931","bandit","low_value","bandit-task","60","561608","0.0-9.0-0.15","5687","881118","highRank"
"53","2","17","false","risky","safe","safe","10","974","bandit","low_value","bandit-task","61","565183","0.0-9.0-0.16","5687","881118","highRank"
"54","2","18","false","safe","risky","risky","0","1865","bandit","low_value","bandit-task","62","569626","0.0-9.0-0.17","5687","881118","highRank"
"55","2","19","false","risky","safe","safe","90","1596","bandit","high_value","bandit-task","63","575972","0.0-9.0-0.18","5687","881118","highRank"
"56","2","20","false","safe","risky","risky","70","1257","bandit","decision","bandit-task","64","580022","0.0-9.0-0.19","5687","881118","highRank"
"57","2","21","false","risky","safe","safe","10","841","bandit","low_value","bandit-task","65","583385","0.0-9.0-0.20","5687","881118","highRank"
"58","2","22","false","risky","safe","risky","70","1549","bandit","decision","bandit-task","66","589328","0.0-9.0-0.21","5687","881118","highRank"
"59","2","23","false","risky","safe","risky","20","2233","bandit","low_value","bandit-task","67","594354","0.0-9.0-0.22","5687","881118","highRank"
"60","2","24","false","risky","safe","risky","100","1888","bandit","high_value","bandit-task","68","599102","0.0-9.0-0.23","5687","881118","highRank"
"61","2","25","false","risky","safe","risky","0","1359","bandit","low_value","bandit-task","69","603152","0.0-9.0-0.24","5687","881118","highRank"
"62","2","26","false","safe","risky","risky","30","1122","bandit","decision","bandit-task","70","609632","0.0-9.0-0.25","5687","881118","highRank"
"63","2","27","false","risky","safe","safe","50","886","bandit","decision","bandit-task","71","613233","0.0-9.0-0.26","5687","881118","highRank"
"64","2","28","false","safe","risky","risky","30","998","bandit","decision","bandit-task","72","616787","0.0-9.0-0.27","5687","881118","highRank"
"65","2","29","false","risky","safe","safe","50","875","bandit","decision","bandit-task","73","620184","0.0-9.0-0.28","5687","881118","highRank"
"66","2","30","false","safe","risky","risky","20","1370","bandit","low_value","bandit-task","74","624385","0.0-9.0-0.29","5687","881118","highRank"
"67","2","31","false","risky","safe","safe","10","1479","bandit","low_value","bandit-task","75","631052","0.0-9.0-0.30","5687","881118","highRank"
"68","2","32","false","risky","safe","safe","50","2304","bandit","decision","bandit-task","76","636442","0.0-9.0-0.31","5687","881118","highRank"
"69","2","33","false","risky","safe","safe","10","1077","bandit","low_value","bandit-task","77","640202","0.0-9.0-0.32","5687","881118","highRank"
"70","2","34","false","safe","risky","risky","20","995","bandit","low_value","bandit-task","78","643991","0.0-9.0-0.33","5687","881118","highRank"
"71","2","35","false","safe","risky","risky","0","875","bandit","low_value","bandit-task","79","647523","0.0-9.0-0.34","5687","881118","highRank"
"72","2","36","false","safe","risky","risky","20","1044","bandit","low_value","bandit-task","80","651460","0.0-9.0-0.35","5687","881118","highRank"
"73","3","1","false","risky","safe","safe","10","1245","bandit","low_value","bandit-task","82","661844","0.0-11.0-0.0","5687","881118","highRank"
"74","3","2","false","risky","safe","safe","50","1178","bandit","decision","bandit-task","83","665782","0.0-11.0-0.1","5687","881118","highRank"
"75","3","3","false","safe","risky","risky","20","1269","bandit","low_value","bandit-task","84","669663","0.0-11.0-0.2","5687","881118","highRank"
"76","3","4","false","risky","safe","safe","50","1415","bandit","decision","bandit-task","85","673916","0.0-11.0-0.3","5687","881118","highRank"
"77","3","5","false","risky","safe","safe","90","1449","bandit","high_value","bandit-task","86","678203","0.0-11.0-0.4","5687","881118","highRank"
"78","3","6","false","safe","risky","risky","0","1536","bandit","low_value","bandit-task","87","682422","0.0-11.0-0.5","5687","881118","highRank"
"79","3","7","false","safe","risky","safe","50","1380","bandit","decision","bandit-task","88","686415","0.0-11.0-0.6","5687","881118","highRank"
"80","3","8","false","safe","risky","risky","20","1807","bandit","low_value","bandit-task","89","692388","0.0-11.0-0.7","5687","881118","highRank"
"81","3","9","false","risky","safe","safe","10","988","bandit","low_value","bandit-task","90","696262","0.0-11.0-0.8","5687","881118","highRank"
"82","3","10","false","safe","risky","risky","0","1468","bandit","low_value","bandit-task","91","700354","0.0-11.0-0.9","5687","881118","highRank"
"83","3","11","false","risky","safe","safe","90","942","bandit","high_value","bandit-task","92","705014","0.0-11.0-0.10","5687","881118","highRank"
"84","3","12","false","risky","safe","safe","10","1266","bandit","low_value","bandit-task","93","709118","0.0-11.0-0.11","5687","881118","highRank"
"85","3","13","false","risky","safe","safe","90","1324","bandit","high_value","bandit-task","94","713956","0.0-11.0-0.12","5687","881118","highRank"
"86","3","14","false","safe","risky","safe","10","2225","bandit","low_value","bandit-task","95","719884","0.0-11.0-0.13","5687","881118","highRank"
"87","3","15","false","safe","risky","safe","10","998","bandit","low_value","bandit-task","96","723720","0.0-11.0-0.14","5687","881118","highRank"
"88","3","16","false","safe","risky","safe","50","2013","bandit","decision","bandit-task","97","729121","0.0-11.0-0.15","5687","881118","highRank"
"89","3","17","false","safe","risky","safe","50","2877","bandit","decision","bandit-task","98","734768","0.0-11.0-0.16","5687","881118","highRank"
"90","3","18","false","safe","risky","risky","70","5591","bandit","decision","bandit-task","99","742891","0.0-11.0-0.17","5687","881118","highRank"
"91","3","19","false","risky","safe","safe","10","2022","bandit","low_value","bandit-task","100","747605","0.0-11.0-0.18","5687","881118","highRank"
"92","3","20","false","risky","safe","safe","10","910","bandit","low_value","bandit-task","101","752254","0.0-11.0-0.19","5687","881118","highRank"
"93","3","21","false","risky","safe","safe","50","1186","bandit","decision","bandit-task","102","756706","0.0-11.0-0.20","5687","881118","highRank"
"94","3","22","false","risky","safe","safe","50","4969","bandit","decision","bandit-task","103","764649","0.0-11.0-0.21","5687","881118","highRank"
"95","3","23","false","safe","risky","risky","20","785","bandit","low_value","bandit-task","104","768005","0.0-11.0-0.22","5687","881118","highRank"
"96","3","24","false","safe","risky","risky","100","1941","bandit","high_value","bandit-task","105","773143","0.0-11.0-0.23","5687","881118","highRank"
"97","3","25","false","safe","risky","risky","70","2788","bandit","decision","bandit-task","106","778624","0.0-11.0-0.24","5687","881118","highRank"
"98","3","26","false","risky","safe","risky","70","4147","bandit","decision","bandit-task","107","785327","0.0-11.0-0.25","5687","881118","highRank"
"99","3","27","false","safe","risky","risky","0","1033","bandit","low_value","bandit-task","108","789077","0.0-11.0-0.26","5687","881118","highRank"
"100","3","28","false","risky","safe","safe","10","1085","bandit","low_value","bandit-task","109","792744","0.0-11.0-0.27","5687","881118","highRank"
"101","3","29","false","safe","risky","risky","20","1153","bandit","low_value","bandit-task","110","796444","0.0-11.0-0.28","5687","881118","highRank"
"102","3","30","false","safe","risky","risky","0","975","bandit","low_value","bandit-task","111","801428","0.0-11.0-0.29","5687","881118","highRank"
"103","3","31","false","risky","safe","risky","0","1750","bandit","low_value","bandit-task","112","805996","0.0-11.0-0.30","5687","881118","highRank"
"104","3","32","false","safe","risky","safe","10","997","bandit","low_value","bandit-task","113","809776","0.0-11.0-0.31","5687","881118","highRank"
"105","3","33","false","risky","safe","safe","10","860","bandit","low_value","bandit-task","114","813149","0.0-11.0-0.32","5687","881118","highRank"
"106","3","34","false","safe","risky","risky","70","1415","bandit","decision","bandit-task","115","817323","0.0-11.0-0.33","5687","881118","highRank"
"107","3","35","false","safe","risky","safe","50","2078","bandit","decision","bandit-task","116","822071","0.0-11.0-0.34","5687","881118","highRank"
"108","3","36","false","safe","risky","safe","10","1921","bandit","low_value","bandit-task","117","826943","0.0-11.0-0.35","5687","881118","highRank"
"109","4","1","false","risky","safe","safe","10","978","bandit","low_value","bandit-task","119","831533","0.0-13.0-0.0","5687","881118","highRank"
"110","4","2","false","safe","risky","safe","10","862","bandit","low_value","bandit-task","120","834918","0.0-13.0-0.1","5687","881118","highRank"
"111","4","3","false","risky","safe","risky","30","1662","bandit","decision","bandit-task","121","839363","0.0-13.0-0.2","5687","881118","highRank"
"112","4","4","false","risky","safe","safe","10","1739","bandit","low_value","bandit-task","122","843751","0.0-13.0-0.3","5687","881118","highRank"
"113","4","5","false","safe","risky","safe","10","1221","bandit","low_value","bandit-task","123","847755","0.0-13.0-0.4","5687","881118","highRank"
"114","4","6","false","safe","risky","safe","10","965","bandit","low_value","bandit-task","124","851277","0.0-13.0-0.5","5687","881118","highRank"
"115","4","7","false","risky","safe","risky","70","1358","bandit","decision","bandit-task","125","855316","0.0-13.0-0.6","5687","881118","highRank"
"116","4","8","false","risky","safe","risky","80","1448","bandit","high_value","bandit-task","126","859320","0.0-13.0-0.7","5687","881118","highRank"
"117","4","9","false","risky","safe","safe","10","1280","bandit","low_value","bandit-task","127","863103","0.0-13.0-0.8","5687","881118","highRank"
"118","4","10","false","risky","safe","risky","70","1141","bandit","decision","bandit-task","128","866805","0.0-13.0-0.9","5687","881118","highRank"
"119","4","11","false","safe","risky","safe","10","1175","bandit","low_value","bandit-task","129","870506","0.0-13.0-0.10","5687","881118","highRank"
"120","4","12","false","risky","safe","safe","50","1277","bandit","decision","bandit-task","130","874429","0.0-13.0-0.11","5687","881118","highRank"
"121","4","13","false","risky","safe","safe","10","1155","bandit","low_value","bandit-task","131","878053","0.0-13.0-0.12","5687","881118","highRank"
"122","4","14","false","safe","risky","risky","100","1413","bandit","high_value","bandit-task","132","882753","0.0-13.0-0.13","5687","881118","highRank"
"123","4","15","false","risky","safe","safe","50","1370","bandit","decision","bandit-task","133","887209","0.0-13.0-0.14","5687","881118","highRank"
"124","4","16","false","risky","safe","safe","10","1325","bandit","low_value","bandit-task","134","891025","0.0-13.0-0.15","5687","881118","highRank"
"125","4","17","false","risky","safe","safe","10","896","bandit","low_value","bandit-task","135","896559","0.0-13.0-0.16","5687","881118","highRank"
"126","4","18","false","risky","safe","safe","50","1920","bandit","decision","bandit-task","136","900992","0.0-13.0-0.17","5687","881118","highRank"
"127","4","19","false","risky","safe","safe","50","919","bandit","decision","bandit-task","137","904459","0.0-13.0-0.18","5687","881118","highRank"
"128","4","20","false","safe","risky","safe","10","1626","bandit","low_value","bandit-task","138","908618","0.0-13.0-0.19","5687","881118","highRank"
"129","4","21","false","safe","risky","safe","10","1292","bandit","low_value","bandit-task","139","912456","0.0-13.0-0.20","5687","881118","highRank"
"130","4","22","false","risky","safe","risky","100","1559","bandit","high_value","bandit-task","140","916865","0.0-13.0-0.21","5687","881118","highRank"
"131","4","23","false","risky","safe","risky","80","1560","bandit","high_value","bandit-task","141","921185","0.0-13.0-0.22","5687","881118","highRank"
"132","4","24","false","safe","risky","safe","10","1515","bandit","low_value","bandit-task","142","925303","0.0-13.0-0.23","5687","881118","highRank"
"133","4","25","false","risky","safe","risky","30","3023","bandit","decision","bandit-task","143","931064","0.0-13.0-0.24","5687","881118","highRank"
"134","4","26","false","safe","risky","safe","10","1469","bandit","low_value","bandit-task","144","935034","0.0-13.0-0.25","5687","881118","highRank"
"135","4","27","false","risky","safe","safe","10","1054","bandit","low_value","bandit-task","145","938870","0.0-13.0-0.26","5687","881118","highRank"
"136","4","28","false","risky","safe","risky","30","1493","bandit","decision","bandit-task","146","944337","0.0-13.0-0.27","5687","881118","highRank"
"137","4","29","false","risky","safe","safe","10","1527","bandit","low_value","bandit-task","147","948388","0.0-13.0-0.28","5687","881118","highRank"
"138","4","30","false","risky","safe","safe","10","1032","bandit","low_value","bandit-task","148","951935","0.0-13.0-0.29","5687","881118","highRank"
"139","4","31","false","safe","risky","safe","10","1345","bandit","low_value","bandit-task","149","956354","0.0-13.0-0.30","5687","881118","highRank"
"140","4","32","false","safe","risky","safe","10","1201","bandit","low_value","bandit-task","150","960235","0.0-13.0-0.31","5687","881118","highRank"
"141","4","33","false","risky","safe","safe","10","896","bandit","low_value","bandit-task","151","963703","0.0-13.0-0.32","5687","881118","highRank"
"142","4","34","false","risky","safe","risky","70","1444","bandit","decision","bandit-task","152","967931","0.0-13.0-0.33","5687","881118","highRank"
"143","4","35","false","safe","risky","risky","30","1143","bandit","decision","bandit-task","153","971721","0.0-13.0-0.34","5687","881118","highRank"
"144","4","36","false","safe","risky","safe","50","1088","bandit","decision","bandit-task","154","975310","0.0-13.0-0.35","5687","881118","highRank"
"145","5","1","false","risky","safe","safe","10","999","bandit","low_value","bandit-task","156","979765","0.0-15.0-0.0","5687","881118","highRank"
"146","5","2","false","safe","risky","safe","10","1190","bandit","low_value","bandit-task","157","983489","0.0-15.0-0.1","5687","881118","highRank"
"147","5","3","false","risky","safe","risky","80","1404","bandit","high_value","bandit-task","158","987427","0.0-15.0-0.2","5687","881118","highRank"
"148","5","4","false","safe","risky","safe","50","1539","bandit","decision","bandit-task","159","991758","0.0-15.0-0.3","5687","881118","highRank"
"149","5","5","false","risky","safe","safe","10","1077","bandit","low_value","bandit-task","160","995337","0.0-15.0-0.4","5687","881118","highRank"
"150","5","6","false","safe","risky","safe","10","929","bandit","low_value","bandit-task","161","998779","0.0-15.0-0.5","5687","881118","highRank"
"151","5","7","false","safe","risky","safe","50","1853","bandit","decision","bandit-task","162","1003426","0.0-15.0-0.6","5687","881118","highRank"
"152","5","8","false","risky","safe","safe","50","816","bandit","decision","bandit-task","163","1006732","0.0-15.0-0.7","5687","881118","highRank"
"153","5","9","false","risky","safe","risky","100","1089","bandit","high_value","bandit-task","164","1010333","0.0-15.0-0.8","5687","881118","highRank"
"154","5","10","false","risky","safe","safe","10","919","bandit","low_value","bandit-task","165","1013696","0.0-15.0-0.9","5687","881118","highRank"
"155","5","11","false","safe","risky","safe","10","785","bandit","low_value","bandit-task","166","1017048","0.0-15.0-0.10","5687","881118","highRank"
"156","5","12","false","risky","safe","safe","10","887","bandit","low_value","bandit-task","167","1020693","0.0-15.0-0.11","5687","881118","highRank"
"157","5","13","false","safe","risky","safe","50","931","bandit","decision","bandit-task","168","1024519","0.0-15.0-0.12","5687","881118","highRank"
"158","5","14","false","risky","safe","safe","10","863","bandit","low_value","bandit-task","169","1027872","0.0-15.0-0.13","5687","881118","highRank"
"159","5","15","false","risky","safe","safe","50","1357","bandit","decision","bandit-task","170","1033959","0.0-15.0-0.14","5687","881118","highRank"
"160","5","16","false","risky","safe","safe","10","1323","bandit","low_value","bandit-task","171","1037805","0.0-15.0-0.15","5687","881118","highRank"
"161","5","17","false","risky","safe","safe","10","1190","bandit","low_value","bandit-task","172","1041450","0.0-15.0-0.16","5687","881118","highRank"
"162","5","18","false","risky","safe","safe","50","1358","bandit","decision","bandit-task","173","1045548","0.0-15.0-0.17","5687","881118","highRank"
"163","5","19","false","safe","risky","safe","10","3785","bandit","low_value","bandit-task","174","1052116","0.0-15.0-0.18","5687","881118","highRank"
"164","5","20","false","risky","safe","safe","50","1391","bandit","decision","bandit-task","175","1056417","0.0-15.0-0.19","5687","881118","highRank"
"165","5","21","false","risky","safe","safe","10","870","bandit","low_value","bandit-task","176","1059767","0.0-15.0-0.20","5687","881118","highRank"
"166","5","22","false","risky","safe","safe","10","850","bandit","low_value","bandit-task","177","1063199","0.0-15.0-0.21","5687","881118","highRank"
"167","5","23","false","safe","risky","safe","50","1557","bandit","decision","bandit-task","178","1067326","0.0-15.0-0.22","5687","881118","highRank"
"168","5","24","false","safe","risky","safe","10","1481","bandit","low_value","bandit-task","179","1071410","0.0-15.0-0.23","5687","881118","highRank"
"169","5","25","false","risky","safe","safe","10","874","bandit","low_value","bandit-task","180","1074796","0.0-15.0-0.24","5687","881118","highRank"
"170","5","26","false","risky","safe","safe","10","918","bandit","low_value","bandit-task","181","1078363","0.0-15.0-0.25","5687","881118","highRank"
"171","5","27","false","safe","risky","safe","10","1356","bandit","low_value","bandit-task","182","1082379","0.0-15.0-0.26","5687","881118","highRank"
"172","5","28","false","safe","risky","safe","10","1695","bandit","low_value","bandit-task","183","1086632","0.0-15.0-0.27","5687","881118","highRank"
"173","5","29","false","safe","risky","safe","50","1772","bandit","decision","bandit-task","184","1091605","0.0-15.0-0.28","5687","881118","highRank"
"174","5","30","false","risky","safe","risky","80","1525","bandit","high_value","bandit-task","185","1095743","0.0-15.0-0.29","5687","881118","highRank"
"175","5","31","false","safe","risky","risky","80","1078","bandit","high_value","bandit-task","186","1099299","0.0-15.0-0.30","5687","881118","highRank"
"176","5","32","false","safe","risky","safe","50","987","bandit","decision","bandit-task","187","1102823","0.0-15.0-0.31","5687","881118","highRank"
"177","5","33","false","risky","safe","safe","50","960","bandit","decision","bandit-task","188","1106252","0.0-15.0-0.32","5687","881118","highRank"
"178","5","34","false","risky","safe","safe","50","998","bandit","decision","bandit-task","189","1109707","0.0-15.0-0.33","5687","881118","highRank"
"179","5","35","false","risky","safe","safe","10","906","bandit","low_value","bandit-task","190","1113111","0.0-15.0-0.34","5687","881118","highRank"
"180","5","36","false","safe","risky","safe","10","975","bandit","low_value","bandit-task","191","1116684","0.0-15.0-0.35","5687","881118","highRank"
"181","5","37","false","safe","safe","safe","90","6419","bandit","catch","bandit-task","204","1208976","0.0-23.0-0.0","5687","881118","highRank"
"182","5","38","false","risky","risky","risky","100","2505","bandit","catch","bandit-task","205","1214334","0.0-23.0-0.1","5687","881118","highRank"
"183","5","39","false","safe","risky","risky","100","1728","bandit","catch","bandit-task","206","1218888","0.0-23.0-0.2","5687","881118","highRank"
"184","5","40","false","safe","risky","safe","90","1549","bandit","catch","bandit-task","207","1222937","0.0-23.0-0.3","5687","881118","highRank"
"185","5","41","false","safe","safe","safe","90","1313","bandit","catch","bandit-task","208","1226707","0.0-23.0-0.4","5687","881118","highRank"
"186","5","42","false","safe","risky","risky","80","1514","bandit","catch","bandit-task","209","1230982","0.0-23.0-0.5","5687","881118","highRank"
"187","5","43","false","risky","risky","risky","100","3146","bandit","catch","bandit-task","210","1236640","0.0-23.0-0.6","5687","881118","highRank"
"188","5","44","false","risky","safe","safe","50","2168","bandit","catch","bandit-task","211","1241332","0.0-23.0-0.7","5687","881118","highRank"
"189","5","45","false","risky","safe","safe","90","2584","bandit","catch","bandit-task","212","1246521","0.0-23.0-0.8","5687","881118","highRank"
"190","5","46","false","safe","safe","safe","50","1658","bandit","catch","bandit-task","213","1250692","0.0-23.0-0.9","5687","881118","highRank"
"191","5","47","false","risky","safe","risky","30","2191","bandit","catch","bandit-task","214","1255339","0.0-23.0-0.10","5687","881118","highRank"
"192","5","48","false","risky","risky","risky","30","1154","bandit","catch","bandit-task","215","1258950","0.0-23.0-0.11","5687","881118","highRank"
"193","5","49","false","safe","safe","safe","90","2931","bandit","catch","bandit-task","216","1264473","0.0-23.0-0.12","5687","881118","highRank"
"194","5","50","false","safe","risky","risky","100","1920","bandit","catch","bandit-task","217","1270751","0.0-23.0-0.13","5687","881118","highRank"
"195","5","51","false","risky","risky","risky","100","1301","bandit","catch","bandit-task","218","1274520","0.0-23.0-0.14","5687","881118","highRank"
"196","5","52","false","safe","risky","safe","90","1683","bandit","catch","bandit-task","219","1278772","0.0-23.0-0.15","5687","881118","highRank"
"197","5","53","false","risky","risky","risky","100","1133","bandit","catch","bandit-task","220","1282406","0.0-23.0-0.16","5687","881118","highRank"
"198","5","54","false","risky","safe","risky","80","997","bandit","catch","bandit-task","221","1285848","0.0-23.0-0.17","5687","881118","highRank"
"199","5","55","false","risky","safe","safe","50","1313","bandit","catch","bandit-task","222","1293712","0.0-23.0-0.18","5687","881118","highRank"
"200","5","56","false","risky","safe","risky","70","1729","bandit","catch","bandit-task","223","1299395","0.0-23.0-0.19","5687","881118","highRank"
"201","5","57","false","risky","safe","safe","90","4148","bandit","catch","bandit-task","224","1306031","0.0-23.0-0.20","5687","881118","highRank"
"202","5","58","false","safe","safe","safe","50","1212","bandit","catch","bandit-task","225","1309814","0.0-23.0-0.21","5687","881118","highRank"
"203","5","59","false","safe","safe","safe","90","1412","bandit","catch","bandit-task","226","1313759","0.0-23.0-0.22","5687","881118","highRank"
"204","5","60","false","risky","risky","risky","70","1268","bandit","catch","bandit-task","227","1317551","0.0-23.0-0.23","5687","881118","highRank"
