"banditTrial","block","trialInBlock","singleOption","leftOption","rightOption","choice","feedback","rt","task","choiceType","trial_type","trial_index","time_elapsed","internal_node_id","participant","turkCode","condition"
"1","1","1","false","risky","safe","risky","100","10157","bandit","high_value","bandit-task","11","206640","0.0-7.0-0.0","79191","330941","highRank"
"2","1","2","false","risky","safe","safe","10","2485","bandit","low_value","bandit-task","12","212240","0.0-7.0-0.1","79191","330941","highRank"
"3","1","3","false","safe","risky","risky","20","2645","bandit","low_value","bandit-task","13","217824","0.0-7.0-0.2","79191","330941","highRank"
"4","1","4","false","risky","safe","risky","30","1717","bandit","decision","bandit-task","14","222377","0.0-7.0-0.3","79191","330941","highRank"
"5","1","5","false","safe","risky","safe","90","1157","bandit","high_value","bandit-task","15","226416","0.0-7.0-0.4","79191","330941","highRank"
"6","1","6","false","risky","safe","risky","20","1853","bandit","low_value","bandit-task","16","230960","0.0-7.0-0.5","79191","330941","highRank"
"7","1","7","false","safe","risky","safe","10","1581","bandit","low_value","bandit-task","17","235368","0.0-7.0-0.6","79191","330941","highRank"
"8","1","8","false","risky","safe","safe","50","1621","bandit","decision","bandit-task","18","239993","0.0-7.0-0.7","79191","330941","highRank"
"9","1","9","false","safe","risky","safe","10","1101","bandit","low_value","bandit-task","19","244280","0.0-7.0-0.8","79191","330941","highRank"
"10","1","10","false","risky","safe","safe","10","1342","bandit","low_value","bandit-task","20","248344","0.0-7.0-0.9","79191","330941","highRank"
"11","1","11","false","safe","risky","safe","50","1004","bandit","decision","bandit-task","21","252095","0.0-7.0-0.10","79191","330941","highRank"
"12","1","12","false","risky","safe","risky","20","1677","bandit","low_value","bandit-task","22","256431","0.0-7.0-0.11","79191","330941","highRank"
"13","1","13","false","risky","safe","risky","0","957","bandit","low_value","bandit-task","23","259919","0.0-7.0-0.12","79191","330941","highRank"
"14","1","14","false","safe","risky","safe","10","1558","bandit","low_value","bandit-task","24","264199","0.0-7.0-0.13","79191","330941","highRank"
"15","1","15","false","risky","safe","risky","20","1157","bandit","low_value","bandit-task","25","267903","0.0-7.0-0.14","79191","330941","highRank"
"16","1","16","false","safe","risky","safe","10","1070","bandit","low_value","bandit-task","26","271759","0.0-7.0-0.15","79191","330941","highRank"
"17","1","17","false","risky","safe","safe","10","1085","bandit","low_value","bandit-task","27","275415","0.0-7.0-0.16","79191","330941","highRank"
"18","1","18","false","safe","risky","safe","10","2972","bandit","low_value","bandit-task","28","280959","0.0-7.0-0.17","79191","330941","highRank"
"19","1","19","false","risky","safe","risky","0","1637","bandit","low_value","bandit-task","29","285311","0.0-7.0-0.18","79191","330941","highRank"
"20","1","20","false","risky","safe","risky","20","1878","bandit","low_value","bandit-task","30","290015","0.0-7.0-0.19","79191","330941","highRank"
"21","1","21","false","safe","risky","risky","80","2430","bandit","high_value","bandit-task","31","295847","0.0-7.0-0.20","79191","330941","highRank"
"22","1","22","false","safe","risky","safe","10","1301","bandit","low_value","bandit-task","32","300350","0.0-7.0-0.21","79191","330941","highRank"
"23","1","23","false","risky","safe","safe","50","1397","bandit","decision","bandit-task","33","305119","0.0-7.0-0.22","79191","330941","highRank"
"24","1","24","false","safe","risky","safe","50","1388","bandit","decision","bandit-task","34","309894","0.0-7.0-0.23","79191","330941","highRank"
"25","1","25","false","safe","risky","safe","10","997","bandit","low_value","bandit-task","35","313438","0.0-7.0-0.24","79191","330941","highRank"
"26","1","26","false","risky","safe","risky","20","2069","bandit","low_value","bandit-task","36","318622","0.0-7.0-0.25","79191","330941","highRank"
"27","1","27","false","safe","risky","safe","10","965","bandit","low_value","bandit-task","37","322142","0.0-7.0-0.26","79191","330941","highRank"
"28","1","28","false","safe","risky","safe","50","1021","bandit","decision","bandit-task","38","325734","0.0-7.0-0.27","79191","330941","highRank"
"29","1","29","false","safe","risky","safe","90","1069","bandit","high_value","bandit-task","39","329606","0.0-7.0-0.28","79191","330941","highRank"
"30","1","30","false","risky","safe","risky","70","1108","bandit","decision","bandit-task","40","333653","0.0-7.0-0.29","79191","330941","highRank"
"31","1","31","false","safe","risky","safe","50","812","bandit","decision","bandit-task","41","336990","0.0-7.0-0.30","79191","330941","highRank"
"32","1","32","false","risky","safe","risky","70","708","bandit","decision","bandit-task","42","340445","0.0-7.0-0.31","79191","330941","highRank"
"33","1","33","false","risky","safe","risky","30","702","bandit","decision","bandit-task","43","343709","0.0-7.0-0.32","79191","330941","highRank"
"34","1","34","false","risky","safe","risky","30","725","bandit","decision","bandit-task","44","347181","0.0-7.0-0.33","79191","330941","highRank"
"35","1","35","false","risky","safe","safe","50","821","bandit","decision","bandit-task","45","350606","0.0-7.0-0.34","79191","330941","highRank"
"36","1","36","false","safe","risky","risky","0","652","bandit","low_value","bandit-task","46","353765","0.0-7.0-0.35","79191","330941","highRank"
"37","2","1","false","safe","risky","safe","10","1566","bandit","low_value","bandit-task","48","362037","0.0-9.0-0.0","79191","330941","highRank"
"38","2","2","false","risky","safe","safe","10","643","bandit","low_value","bandit-task","49","365285","0.0-9.0-0.1","79191","330941","highRank"
"39","2","3","false","risky","safe","safe","50","701","bandit","decision","bandit-task","50","368525","0.0-9.0-0.2","79191","330941","highRank"
"40","2","4","false","safe","risky","risky","20","590","bandit","low_value","bandit-task","51","371676","0.0-9.0-0.3","79191","330941","highRank"
"41","2","5","false","safe","risky","safe","10","725","bandit","low_value","bandit-task","52","374989","0.0-9.0-0.4","79191","330941","highRank"
"42","2","6","false","safe","risky","safe","10","612","bandit","low_value","bandit-task","53","378068","0.0-9.0-0.5","79191","330941","highRank"
"43","2","7","false","risky","safe","risky","70","582","bandit","decision","bandit-task","54","381284","0.0-9.0-0.6","79191","330941","highRank"
"44","2","8","false","risky","safe","risky","30","581","bandit","decision","bandit-task","55","384652","0.0-9.0-0.7","79191","330941","highRank"
"45","2","9","false","risky","safe","risky","70","580","bandit","decision","bandit-task","56","387740","0.0-9.0-0.8","79191","330941","highRank"
"46","2","10","false","safe","risky","safe","10","629","bandit","low_value","bandit-task","57","391116","0.0-9.0-0.9","79191","330941","highRank"
"47","2","11","false","safe","risky","risky","0","845","bandit","low_value","bandit-task","58","394788","0.0-9.0-0.10","79191","330941","highRank"
"48","2","12","false","risky","safe","safe","10","548","bandit","low_value","bandit-task","59","398084","0.0-9.0-0.11","79191","330941","highRank"
"49","2","13","false","safe","risky","risky","20","590","bandit","low_value","bandit-task","60","401212","0.0-9.0-0.12","79191","330941","highRank"
"50","2","14","false","risky","safe","risky","30","565","bandit","decision","bandit-task","61","404548","0.0-9.0-0.13","79191","330941","highRank"
"51","2","15","false","risky","safe","safe","10","630","bandit","low_value","bandit-task","62","407780","0.0-9.0-0.14","79191","330941","highRank"
"52","2","16","false","risky","safe","risky","30","637","bandit","decision","bandit-task","63","410940","0.0-9.0-0.15","79191","330941","highRank"
"53","2","17","false","safe","risky","safe","10","901","bandit","low_value","bandit-task","64","414508","0.0-9.0-0.16","79191","330941","highRank"
"54","2","18","false","risky","safe","risky","0","686","bandit","low_value","bandit-task","65","417828","0.0-9.0-0.17","79191","330941","highRank"
"55","2","19","false","safe","risky","safe","50","709","bandit","decision","bandit-task","66","421180","0.0-9.0-0.18","79191","330941","highRank"
"56","2","20","false","safe","risky","safe","10","909","bandit","low_value","bandit-task","67","424884","0.0-9.0-0.19","79191","330941","highRank"
"57","2","21","false","safe","risky","safe","50","1029","bandit","decision","bandit-task","68","428564","0.0-9.0-0.20","79191","330941","highRank"
"58","2","22","false","safe","risky","risky","20","1421","bandit","low_value","bandit-task","69","432658","0.0-9.0-0.21","79191","330941","highRank"
"59","2","23","false","safe","risky","safe","50","741","bandit","decision","bandit-task","70","435914","0.0-9.0-0.22","79191","330941","highRank"
"60","2","24","false","risky","safe","safe","90","1757","bandit","high_value","bandit-task","71","440787","0.0-9.0-0.23","79191","330941","highRank"
"61","2","25","false","risky","safe","risky","30","852","bandit","decision","bandit-task","72","444410","0.0-9.0-0.24","79191","330941","highRank"
"62","2","26","false","risky","safe","safe","10","933","bandit","low_value","bandit-task","73","447842","0.0-9.0-0.25","79191","330941","highRank"
"63","2","27","false","risky","safe","risky","20","589","bandit","low_value","bandit-task","74","450922","0.0-9.0-0.26","79191","330941","highRank"
"64","2","28","false","safe","risky","safe","10","1029","bandit","low_value","bandit-task","75","454442","0.0-9.0-0.27","79191","330941","highRank"
"65","2","29","false","safe","risky","safe","90","1581","bandit","high_value","bandit-task","76","458778","0.0-9.0-0.28","79191","330941","highRank"
"66","2","30","false","risky","safe","risky","0","821","bandit","low_value","bandit-task","77","462170","0.0-9.0-0.29","79191","330941","highRank"
"67","2","31","false","risky","safe","risky","20","653","bandit","low_value","bandit-task","78","465299","0.0-9.0-0.30","79191","330941","highRank"
"68","2","32","false","risky","safe","risky","0","788","bandit","low_value","bandit-task","79","468634","0.0-9.0-0.31","79191","330941","highRank"
"69","2","33","false","safe","risky","safe","50","981","bandit","decision","bandit-task","80","472290","0.0-9.0-0.32","79191","330941","highRank"
"70","2","34","false","risky","safe","risky","70","1349","bandit","decision","bandit-task","81","476634","0.0-9.0-0.33","79191","330941","highRank"
"71","2","35","false","risky","safe","safe","90","1172","bandit","high_value","bandit-task","82","480674","0.0-9.0-0.34","79191","330941","highRank"
"72","2","36","false","risky","safe","safe","90","901","bandit","high_value","bandit-task","83","484474","0.0-9.0-0.35","79191","330941","highRank"
"73","3","1","false","risky","safe","safe","50","1183","bandit","decision","bandit-task","85","491346","0.0-11.0-0.0","79191","330941","highRank"
"74","3","2","false","risky","safe","safe","90","941","bandit","high_value","bandit-task","86","495370","0.0-11.0-0.1","79191","330941","highRank"
"75","3","3","false","risky","safe","safe","50","1476","bandit","decision","bandit-task","87","499961","0.0-11.0-0.2","79191","330941","highRank"
"76","3","4","false","safe","risky","risky","20","10516","bandit","low_value","bandit-task","88","514041","0.0-11.0-0.3","79191","330941","highRank"
"77","3","5","false","risky","safe","risky","0","1196","bandit","low_value","bandit-task","89","518705","0.0-11.0-0.4","79191","330941","highRank"
"78","3","6","false","risky","safe","risky","30","1085","bandit","decision","bandit-task","90","522937","0.0-11.0-0.5","79191","330941","highRank"
"79","3","7","false","safe","risky","safe","50","1253","bandit","decision","bandit-task","91","527065","0.0-11.0-0.6","79191","330941","highRank"
"80","3","8","false","safe","risky","safe","50","884","bandit","decision","bandit-task","92","530681","0.0-11.0-0.7","79191","330941","highRank"
"81","3","9","false","risky","safe","safe","90","901","bandit","high_value","bandit-task","93","534521","0.0-11.0-0.8","79191","330941","highRank"
"82","3","10","false","risky","safe","safe","10","2221","bandit","low_value","bandit-task","94","539713","0.0-11.0-0.9","79191","330941","highRank"
"83","3","11","false","risky","safe","risky","20","1341","bandit","low_value","bandit-task","95","543721","0.0-11.0-0.10","79191","330941","highRank"
"84","3","12","false","risky","safe","safe","50","1500","bandit","decision","bandit-task","96","548025","0.0-11.0-0.11","79191","330941","highRank"
"85","3","13","false","safe","risky","safe","90","853","bandit","high_value","bandit-task","97","551624","0.0-11.0-0.12","79191","330941","highRank"
"86","3","14","false","risky","safe","risky","0","1052","bandit","low_value","bandit-task","98","555407","0.0-11.0-0.13","79191","330941","highRank"
"87","3","15","false","risky","safe","safe","10","869","bandit","low_value","bandit-task","99","559432","0.0-11.0-0.14","79191","330941","highRank"
"88","3","16","false","risky","safe","safe","50","1385","bandit","decision","bandit-task","100","563351","0.0-11.0-0.15","79191","330941","highRank"
"89","3","17","false","risky","safe","safe","10","796","bandit","low_value","bandit-task","101","566959","0.0-11.0-0.16","79191","330941","highRank"
"90","3","18","false","risky","safe","safe","10","1052","bandit","low_value","bandit-task","102","570759","0.0-11.0-0.17","79191","330941","highRank"
"91","3","19","false","safe","risky","safe","10","1068","bandit","low_value","bandit-task","103","574559","0.0-11.0-0.18","79191","330941","highRank"
"92","3","20","false","safe","risky","safe","10","900","bandit","low_value","bandit-task","104","578255","0.0-11.0-0.19","79191","330941","highRank"
"93","3","21","false","safe","risky","risky","70","996","bandit","decision","bandit-task","105","582071","0.0-11.0-0.20","79191","330941","highRank"
"94","3","22","false","risky","safe","risky","70","972","bandit","decision","bandit-task","106","585703","0.0-11.0-0.21","79191","330941","highRank"
"95","3","23","false","safe","risky","safe","10","1709","bandit","low_value","bandit-task","107","589952","0.0-11.0-0.22","79191","330941","highRank"
"96","3","24","false","risky","safe","risky","20","1643","bandit","low_value","bandit-task","108","594511","0.0-11.0-0.23","79191","330941","highRank"
"97","3","25","false","risky","safe","risky","0","788","bandit","low_value","bandit-task","109","597959","0.0-11.0-0.24","79191","330941","highRank"
"98","3","26","false","risky","safe","risky","0","1093","bandit","low_value","bandit-task","110","601527","0.0-11.0-0.25","79191","330941","highRank"
"99","3","27","false","risky","safe","safe","10","925","bandit","low_value","bandit-task","111","605031","0.0-11.0-0.26","79191","330941","highRank"
"100","3","28","false","risky","safe","safe","10","916","bandit","low_value","bandit-task","112","608639","0.0-11.0-0.27","79191","330941","highRank"
"101","3","29","false","risky","safe","risky","30","1461","bandit","decision","bandit-task","113","612647","0.0-11.0-0.28","79191","330941","highRank"
"102","3","30","false","safe","risky","risky","20","1452","bandit","low_value","bandit-task","114","616574","0.0-11.0-0.29","79191","330941","highRank"
"103","3","31","false","risky","safe","safe","90","1100","bandit","high_value","bandit-task","115","620214","0.0-11.0-0.30","79191","330941","highRank"
"104","3","32","false","risky","safe","risky","20","2365","bandit","low_value","bandit-task","116","625142","0.0-11.0-0.31","79191","330941","highRank"
"105","3","33","false","risky","safe","risky","70","1236","bandit","decision","bandit-task","117","629094","0.0-11.0-0.32","79191","330941","highRank"
"106","3","34","false","risky","safe","safe","10","1085","bandit","low_value","bandit-task","118","632862","0.0-11.0-0.33","79191","330941","highRank"
"107","3","35","false","safe","risky","safe","50","1020","bandit","decision","bandit-task","119","636390","0.0-11.0-0.34","79191","330941","highRank"
"108","3","36","false","risky","safe","safe","10","1341","bandit","low_value","bandit-task","120","640286","0.0-11.0-0.35","79191","330941","highRank"
"109","4","1","false","risky","safe","risky","30","1703","bandit","decision","bandit-task","122","646094","0.0-13.0-0.0","79191","330941","highRank"
"110","4","2","false","risky","safe","safe","10","1117","bandit","low_value","bandit-task","123","650142","0.0-13.0-0.1","79191","330941","highRank"
"111","4","3","false","risky","safe","risky","20","1141","bandit","low_value","bandit-task","124","653894","0.0-13.0-0.2","79191","330941","highRank"
"112","4","4","false","safe","risky","risky","0","1299","bandit","low_value","bandit-task","125","657877","0.0-13.0-0.3","79191","330941","highRank"
"113","4","5","false","safe","risky","safe","50","1012","bandit","decision","bandit-task","126","661630","0.0-13.0-0.4","79191","330941","highRank"
"114","4","6","false","safe","risky","safe","10","843","bandit","low_value","bandit-task","127","665141","0.0-13.0-0.5","79191","330941","highRank"
"115","4","7","false","risky","safe","risky","70","860","bandit","decision","bandit-task","128","668573","0.0-13.0-0.6","79191","330941","highRank"
"116","4","8","false","risky","safe","safe","10","1092","bandit","low_value","bandit-task","129","672198","0.0-13.0-0.7","79191","330941","highRank"
"117","4","9","false","safe","risky","safe","10","827","bandit","low_value","bandit-task","130","675757","0.0-13.0-0.8","79191","330941","highRank"
"118","4","10","false","safe","risky","risky","100","1788","bandit","high_value","bandit-task","131","680997","0.0-13.0-0.9","79191","330941","highRank"
"119","4","11","false","safe","risky","safe","10","1132","bandit","low_value","bandit-task","132","684917","0.0-13.0-0.10","79191","330941","highRank"
"120","4","12","false","safe","risky","risky","30","1572","bandit","decision","bandit-task","133","689389","0.0-13.0-0.11","79191","330941","highRank"
"121","4","13","false","safe","risky","safe","10","2069","bandit","low_value","bandit-task","134","694245","0.0-13.0-0.12","79191","330941","highRank"
"122","4","14","false","safe","risky","risky","70","4364","bandit","decision","bandit-task","135","701453","0.0-13.0-0.13","79191","330941","highRank"
"123","4","15","false","risky","safe","safe","50","2084","bandit","decision","bandit-task","136","706381","0.0-13.0-0.14","79191","330941","highRank"
"124","4","16","false","risky","safe","risky","0","1340","bandit","low_value","bandit-task","137","710373","0.0-13.0-0.15","79191","330941","highRank"
"125","4","17","false","safe","risky","safe","50","1085","bandit","decision","bandit-task","138","714157","0.0-13.0-0.16","79191","330941","highRank"
"126","4","18","false","risky","safe","safe","10","1141","bandit","low_value","bandit-task","139","718165","0.0-13.0-0.17","79191","330941","highRank"
"127","4","19","false","safe","risky","safe","10","955","bandit","low_value","bandit-task","140","721877","0.0-13.0-0.18","79191","330941","highRank"
"128","4","20","false","safe","risky","risky","70","2004","bandit","decision","bandit-task","141","726533","0.0-13.0-0.19","79191","330941","highRank"
"129","4","21","false","safe","risky","safe","10","947","bandit","low_value","bandit-task","142","730181","0.0-13.0-0.20","79191","330941","highRank"
"130","4","22","false","safe","risky","safe","10","860","bandit","low_value","bandit-task","143","733924","0.0-13.0-0.21","79191","330941","highRank"
"131","4","23","false","safe","risky","safe","10","812","bandit","low_value","bandit-task","144","737955","0.0-13.0-0.22","79191","330941","highRank"
"132","4","24","false","safe","risky","safe","50","1980","bandit","decision","bandit-task","145","742435","0.0-13.0-0.23","79191","330941","highRank"
"133","4","25","false","safe","risky","safe","10","876","bandit","low_value","bandit-task","146","745891","0.0-13.0-0.24","79191","330941","highRank"
"134","4","26","false","safe","risky","risky","100","1204","bandit","high_value","bandit-task","147","750147","0.0-13.0-0.25","79191","330941","highRank"
"135","4","27","false","risky","safe","risky","20","1540","bandit","low_value","bandit-task","148","754451","0.0-13.0-0.26","79191","330941","highRank"
"136","4","28","false","safe","risky","risky","20","844","bandit","low_value","bandit-task","149","758299","0.0-13.0-0.27","79191","330941","highRank"
"137","4","29","false","safe","risky","risky","0","756","bandit","low_value","bandit-task","150","761651","0.0-13.0-0.28","79191","330941","highRank"
"138","4","30","false","safe","risky","risky","70","1797","bandit","decision","bandit-task","151","766051","0.0-13.0-0.29","79191","330941","highRank"
"139","4","31","false","safe","risky","risky","100","1116","bandit","high_value","bandit-task","152","770171","0.0-13.0-0.30","79191","330941","highRank"
"140","4","32","false","safe","risky","risky","0","1684","bandit","low_value","bandit-task","153","774475","0.0-13.0-0.31","79191","330941","highRank"
"141","4","33","false","risky","safe","risky","70","1340","bandit","decision","bandit-task","154","778595","0.0-13.0-0.32","79191","330941","highRank"
"142","4","34","false","risky","safe","risky","70","844","bandit","decision","bandit-task","155","782299","0.0-13.0-0.33","79191","330941","highRank"
"143","4","35","false","risky","safe","risky","20","812","bandit","low_value","bandit-task","156","786282","0.0-13.0-0.34","79191","330941","highRank"
"144","4","36","false","safe","risky","risky","100","1067","bandit","high_value","bandit-task","157","790418","0.0-13.0-0.35","79191","330941","highRank"
"145","5","1","false","safe","risky","risky","100","1614","bandit","high_value","bandit-task","159","798450","0.0-15.0-0.0","79191","330941","highRank"
"146","5","2","false","risky","safe","risky","30","1228","bandit","decision","bandit-task","160","802354","0.0-15.0-0.1","79191","330941","highRank"
"147","5","3","false","safe","risky","safe","50","804","bandit","decision","bandit-task","161","805802","0.0-15.0-0.2","79191","330941","highRank"
"148","5","4","false","risky","safe","risky","0","1484","bandit","low_value","bandit-task","162","810082","0.0-15.0-0.3","79191","330941","highRank"
"149","5","5","false","safe","risky","safe","50","1636","bandit","decision","bandit-task","163","814634","0.0-15.0-0.4","79191","330941","highRank"
"150","5","6","false","risky","safe","risky","0","1116","bandit","low_value","bandit-task","164","818738","0.0-15.0-0.5","79191","330941","highRank"
"151","5","7","false","risky","safe","risky","70","1469","bandit","decision","bandit-task","165","823042","0.0-15.0-0.6","79191","330941","highRank"
"152","5","8","false","safe","risky","risky","20","1060","bandit","low_value","bandit-task","166","826842","0.0-15.0-0.7","79191","330941","highRank"
"153","5","9","false","safe","risky","risky","100","1298","bandit","high_value","bandit-task","167","830978","0.0-15.0-0.8","79191","330941","highRank"
"154","5","10","false","safe","risky","risky","0","876","bandit","low_value","bandit-task","168","834538","0.0-15.0-0.9","79191","330941","highRank"
"155","5","11","false","safe","risky","safe","10","819","bandit","low_value","bandit-task","169","838346","0.0-15.0-0.10","79191","330941","highRank"
"156","5","12","false","safe","risky","safe","10","891","bandit","low_value","bandit-task","170","842113","0.0-15.0-0.11","79191","330941","highRank"
"157","5","13","false","safe","risky","safe","10","780","bandit","low_value","bandit-task","171","845505","0.0-15.0-0.12","79191","330941","highRank"
"158","5","14","false","safe","risky","risky","30","1788","bandit","decision","bandit-task","172","849945","0.0-15.0-0.13","79191","330941","highRank"
"159","5","15","false","safe","risky","risky","20","1084","bandit","low_value","bandit-task","173","853785","0.0-15.0-0.14","79191","330941","highRank"
"160","5","16","false","safe","risky","safe","50","916","bandit","decision","bandit-task","174","857161","0.0-15.0-0.15","79191","330941","highRank"
"161","5","17","false","risky","safe","risky","20","1980","bandit","low_value","bandit-task","175","861865","0.0-15.0-0.16","79191","330941","highRank"
"162","5","18","false","risky","safe","risky","20","2588","bandit","low_value","bandit-task","176","867137","0.0-15.0-0.17","79191","330941","highRank"
"163","5","19","false","risky","safe","risky","0","1508","bandit","low_value","bandit-task","177","871345","0.0-15.0-0.18","79191","330941","highRank"
"164","5","20","false","safe","risky","safe","10","1300","bandit","low_value","bandit-task","178","875416","0.0-15.0-0.19","79191","330941","highRank"
"165","5","21","false","risky","safe","safe","10","780","bandit","low_value","bandit-task","179","878809","0.0-15.0-0.20","79191","330941","highRank"
"166","5","22","false","safe","risky","risky","0","722","bandit","low_value","bandit-task","180","882264","0.0-15.0-0.21","79191","330941","highRank"
"167","5","23","false","safe","risky","risky","20","1227","bandit","low_value","bandit-task","181","886240","0.0-15.0-0.22","79191","330941","highRank"
"168","5","24","false","safe","risky","safe","50","931","bandit","decision","bandit-task","182","889793","0.0-15.0-0.23","79191","330941","highRank"
"169","5","25","false","risky","safe","risky","70","715","bandit","decision","bandit-task","183","893104","0.0-15.0-0.24","79191","330941","highRank"
"170","5","26","false","safe","risky","safe","50","892","bandit","decision","bandit-task","184","896744","0.0-15.0-0.25","79191","330941","highRank"
"171","5","27","false","risky","safe","risky","0","795","bandit","low_value","bandit-task","185","900040","0.0-15.0-0.26","79191","330941","highRank"
"172","5","28","false","safe","risky","risky","0","971","bandit","low_value","bandit-task","186","903824","0.0-15.0-0.27","79191","330941","highRank"
"173","5","29","false","safe","risky","safe","50","851","bandit","decision","bandit-task","187","907152","0.0-15.0-0.28","79191","330941","highRank"
"174","5","30","false","safe","risky","risky","0","1100","bandit","low_value","bandit-task","188","911400","0.0-15.0-0.29","79191","330941","highRank"
"175","5","31","false","risky","safe","risky","70","2051","bandit","decision","bandit-task","189","916296","0.0-15.0-0.30","79191","330941","highRank"
"176","5","32","false","risky","safe","risky","0","1155","bandit","low_value","bandit-task","190","920455","0.0-15.0-0.31","79191","330941","highRank"
"177","5","33","false","risky","safe","safe","10","1027","bandit","low_value","bandit-task","191","924487","0.0-15.0-0.32","79191","330941","highRank"
"178","5","34","false","risky","safe","safe","90","964","bandit","high_value","bandit-task","192","927895","0.0-15.0-0.33","79191","330941","highRank"
"179","5","35","false","risky","safe","safe","50","1821","bandit","decision","bandit-task","193","932183","0.0-15.0-0.34","79191","330941","highRank"
"180","5","36","false","risky","safe","risky","100","1355","bandit","high_value","bandit-task","194","936231","0.0-15.0-0.35","79191","330941","highRank"
"181","5","37","false","safe","safe","safe","90","7334","bandit","catch","bandit-task","207","1092252","0.0-23.0-0.0","79191","330941","highRank"
"182","5","38","false","risky","safe","risky","80","4362","bandit","catch","bandit-task","208","1099931","0.0-23.0-0.1","79191","330941","highRank"
"183","5","39","false","risky","risky","risky","80","2075","bandit","catch","bandit-task","209","1104947","0.0-23.0-0.2","79191","330941","highRank"
"184","5","40","false","risky","safe","safe","50","3227","bandit","catch","bandit-task","210","1110891","0.0-23.0-0.3","79191","330941","highRank"
"185","5","41","false","safe","safe","safe","50","1228","bandit","catch","bandit-task","211","1114675","0.0-23.0-0.4","79191","330941","highRank"
"186","5","42","false","risky","risky","risky","70","1988","bandit","catch","bandit-task","212","1120115","0.0-23.0-0.5","79191","330941","highRank"
"187","5","43","false","risky","safe","risky","100","1131","bandit","catch","bandit-task","213","1124083","0.0-23.0-0.6","79191","330941","highRank"
"188","5","44","false","safe","risky","risky","30","1179","bandit","catch","bandit-task","214","1128011","0.0-23.0-0.7","79191","330941","highRank"
"189","5","45","false","risky","risky","risky","30","900","bandit","catch","bandit-task","215","1131715","0.0-23.0-0.8","79191","330941","highRank"
"190","5","46","false","safe","safe","safe","90","1236","bandit","catch","bandit-task","216","1135890","0.0-23.0-0.9","79191","330941","highRank"
"191","5","47","false","risky","safe","safe","90","1371","bandit","catch","bandit-task","217","1140074","0.0-23.0-0.10","79191","330941","highRank"
"192","5","48","false","risky","safe","safe","90","915","bandit","catch","bandit-task","218","1143874","0.0-23.0-0.11","79191","330941","highRank"
"193","5","49","false","risky","safe","risky","80","1147","bandit","catch","bandit-task","219","1147826","0.0-23.0-0.12","79191","330941","highRank"
"194","5","50","false","risky","safe","safe","90","1139","bandit","catch","bandit-task","220","1152139","0.0-23.0-0.13","79191","330941","highRank"
"195","5","51","false","risky","risky","risky","80","1178","bandit","catch","bandit-task","221","1156171","0.0-23.0-0.14","79191","330941","highRank"
"196","5","52","false","risky","safe","safe","90","834","bandit","catch","bandit-task","222","1159730","0.0-23.0-0.15","79191","330941","highRank"
"197","5","53","false","safe","risky","safe","50","1252","bandit","catch","bandit-task","223","1163674","0.0-23.0-0.16","79191","330941","highRank"
"198","5","54","false","safe","risky","risky","100","979","bandit","catch","bandit-task","224","1167458","0.0-23.0-0.17","79191","330941","highRank"
"199","5","55","false","safe","safe","safe","90","956","bandit","catch","bandit-task","225","1170898","0.0-23.0-0.18","79191","330941","highRank"
"200","5","56","false","safe","risky","risky","70","1459","bandit","catch","bandit-task","226","1175130","0.0-23.0-0.19","79191","330941","highRank"
"201","5","57","false","safe","safe","safe","90","1123","bandit","catch","bandit-task","227","1179258","0.0-23.0-0.20","79191","330941","highRank"
"202","5","58","false","safe","safe","safe","50","1580","bandit","catch","bandit-task","228","1183402","0.0-23.0-0.21","79191","330941","highRank"
"203","5","59","false","risky","risky","risky","70","2403","bandit","catch","bandit-task","229","1188889","0.0-23.0-0.22","79191","330941","highRank"
"204","5","60","false","risky","risky","risky","100","1220","bandit","catch","bandit-task","230","1192929","0.0-23.0-0.23","79191","330941","highRank"
