"banditTrial","block","trialInBlock","singleOption","leftOption","rightOption","choice","feedback","rt","task","choiceType","trial_type","trial_index","time_elapsed","internal_node_id","participant","turkCode","condition"
"1","1","1","false","safe","risky","safe","10","2055","bandit","low_value","bandit-task","8","122086","0.0-7.0-0.0","50380","761995","lowRank"
"2","1","2","false","safe","risky","safe","90","2642","bandit","high_value","bandit-task","9","128550","0.0-7.0-0.1","50380","761995","lowRank"
"3","1","3","false","risky","safe","safe","90","1545","bandit","high_value","bandit-task","10","132922","0.0-7.0-0.2","50380","761995","lowRank"
"4","1","4","false","risky","safe","risky","80","636","bandit","high_value","bandit-task","11","136031","0.0-7.0-0.3","50380","761995","lowRank"
"5","1","5","false","risky","safe","safe","90","719","bandit","high_value","bandit-task","12","139187","0.0-7.0-0.4","50380","761995","lowRank"
"6","1","6","false","risky","safe","safe","90","626","bandit","high_value","bandit-task","13","142344","0.0-7.0-0.5","50380","761995","lowRank"
"7","1","7","false","safe","risky","risky","0","1665","bandit","low_value","bandit-task","14","146461","0.0-7.0-0.6","50380","761995","lowRank"
"8","1","8","false","risky","safe","risky","70","1528","bandit","decision","bandit-task","15","150301","0.0-7.0-0.7","50380","761995","lowRank"
"9","1","9","false","risky","safe","safe","50","546","bandit","decision","bandit-task","16","153190","0.0-7.0-0.8","50380","761995","lowRank"
"10","1","10","false","safe","risky","risky","30","2126","bandit","decision","bandit-task","17","157888","0.0-7.0-0.9","50380","761995","lowRank"
"11","1","11","false","safe","risky","safe","50","839","bandit","decision","bandit-task","18","161042","0.0-7.0-0.10","50380","761995","lowRank"
"12","1","12","false","safe","risky","safe","90","1129","bandit","high_value","bandit-task","19","164717","0.0-7.0-0.11","50380","761995","lowRank"
"13","1","13","false","risky","safe","safe","90","605","bandit","high_value","bandit-task","20","167774","0.0-7.0-0.12","50380","761995","lowRank"
"14","1","14","false","safe","risky","safe","90","545","bandit","high_value","bandit-task","21","170755","0.0-7.0-0.13","50380","761995","lowRank"
"15","1","15","false","risky","safe","safe","90","689","bandit","high_value","bandit-task","22","174120","0.0-7.0-0.14","50380","761995","lowRank"
"16","1","16","false","risky","safe","safe","50","3020","bandit","decision","bandit-task","23","179635","0.0-7.0-0.15","50380","761995","lowRank"
"17","1","17","false","safe","risky","safe","90","750","bandit","high_value","bandit-task","24","182934","0.0-7.0-0.16","50380","761995","lowRank"
"18","1","18","false","risky","safe","safe","50","1403","bandit","decision","bandit-task","25","186740","0.0-7.0-0.17","50380","761995","lowRank"
"19","1","19","false","safe","risky","safe","90","705","bandit","high_value","bandit-task","26","189887","0.0-7.0-0.18","50380","761995","lowRank"
"20","1","20","false","safe","risky","safe","90","583","bandit","high_value","bandit-task","27","192824","0.0-7.0-0.19","50380","761995","lowRank"
"21","1","21","false","risky","safe","safe","10","1296","bandit","low_value","bandit-task","28","196659","0.0-7.0-0.20","50380","761995","lowRank"
"22","1","22","false","risky","safe","safe","50","804","bandit","decision","bandit-task","29","199806","0.0-7.0-0.21","50380","761995","lowRank"
"23","1","23","false","safe","risky","safe","90","643","bandit","high_value","bandit-task","30","202957","0.0-7.0-0.22","50380","761995","lowRank"
"24","1","24","false","risky","safe","safe","90","655","bandit","high_value","bandit-task","31","206022","0.0-7.0-0.23","50380","761995","lowRank"
"25","1","25","false","risky","safe","safe","50","1117","bandit","decision","bandit-task","32","209627","0.0-7.0-0.24","50380","761995","lowRank"
"26","1","26","false","safe","risky","safe","90","607","bandit","high_value","bandit-task","33","212554","0.0-7.0-0.25","50380","761995","lowRank"
"27","1","27","false","safe","risky","safe","90","771","bandit","high_value","bandit-task","34","215691","0.0-7.0-0.26","50380","761995","lowRank"
"28","1","28","false","safe","risky","risky","30","2205","bandit","decision","bandit-task","35","220180","0.0-7.0-0.27","50380","761995","lowRank"
"29","1","29","false","risky","safe","safe","50","878","bandit","decision","bandit-task","36","223543","0.0-7.0-0.28","50380","761995","lowRank"
"30","1","30","false","risky","safe","safe","90","747","bandit","high_value","bandit-task","37","226910","0.0-7.0-0.29","50380","761995","lowRank"
"31","1","31","false","safe","risky","safe","50","1722","bandit","decision","bandit-task","38","231093","0.0-7.0-0.30","50380","761995","lowRank"
"32","1","32","false","risky","safe","safe","90","689","bandit","high_value","bandit-task","39","234257","0.0-7.0-0.31","50380","761995","lowRank"
"33","1","33","false","safe","risky","safe","10","1429","bandit","low_value","bandit-task","40","238002","0.0-7.0-0.32","50380","761995","lowRank"
"34","1","34","false","safe","risky","safe","90","741","bandit","high_value","bandit-task","41","241192","0.0-7.0-0.33","50380","761995","lowRank"
"35","1","35","false","safe","risky","safe","90","897","bandit","high_value","bandit-task","42","244471","0.0-7.0-0.34","50380","761995","lowRank"
"36","1","36","false","risky","safe","safe","50","854","bandit","decision","bandit-task","43","247637","0.0-7.0-0.35","50380","761995","lowRank"
"37","2","1","false","safe","risky","safe","10","1221","bandit","low_value","bandit-task","45","255494","0.0-9.0-0.0","50380","761995","lowRank"
"38","2","2","false","risky","safe","safe","90","735","bandit","high_value","bandit-task","46","258521","0.0-9.0-0.1","50380","761995","lowRank"
"39","2","3","false","safe","risky","safe","90","528","bandit","high_value","bandit-task","47","263021","0.0-9.0-0.2","50380","761995","lowRank"
"40","2","4","false","risky","safe","safe","50","1135","bandit","decision","bandit-task","48","266645","0.0-9.0-0.3","50380","761995","lowRank"
"41","2","5","false","safe","risky","safe","10","960","bandit","low_value","bandit-task","49","270102","0.0-9.0-0.4","50380","761995","lowRank"
"42","2","6","false","safe","risky","safe","10","748","bandit","low_value","bandit-task","50","273277","0.0-9.0-0.5","50380","761995","lowRank"
"43","2","7","false","safe","risky","safe","90","644","bandit","high_value","bandit-task","51","276330","0.0-9.0-0.6","50380","761995","lowRank"
"44","2","8","false","safe","risky","safe","10","1926","bandit","low_value","bandit-task","52","280926","0.0-9.0-0.7","50380","761995","lowRank"
"45","2","9","false","safe","risky","safe","90","607","bandit","high_value","bandit-task","53","283823","0.0-9.0-0.8","50380","761995","lowRank"
"46","2","10","false","safe","risky","safe","90","543","bandit","high_value","bandit-task","54","286812","0.0-9.0-0.9","50380","761995","lowRank"
"47","2","11","false","risky","safe","safe","50","754","bandit","decision","bandit-task","55","290036","0.0-9.0-0.10","50380","761995","lowRank"
"48","2","12","false","safe","risky","safe","90","600","bandit","high_value","bandit-task","56","292938","0.0-9.0-0.11","50380","761995","lowRank"
"49","2","13","false","risky","safe","safe","50","1067","bandit","decision","bandit-task","57","296480","0.0-9.0-0.12","50380","761995","lowRank"
"50","2","14","false","risky","safe","risky","100","2643","bandit","high_value","bandit-task","58","303363","0.0-9.0-0.13","50380","761995","lowRank"
"51","2","15","false","safe","risky","safe","50","1479","bandit","decision","bandit-task","59","307599","0.0-9.0-0.14","50380","761995","lowRank"
"52","2","16","false","risky","safe","risky","80","779","bandit","high_value","bandit-task","60","310996","0.0-9.0-0.15","50380","761995","lowRank"
"53","2","17","false","safe","risky","safe","90","583","bandit","high_value","bandit-task","61","313960","0.0-9.0-0.16","50380","761995","lowRank"
"54","2","18","false","safe","risky","safe","50","1254","bandit","decision","bandit-task","62","317493","0.0-9.0-0.17","50380","761995","lowRank"
"55","2","19","false","safe","risky","safe","90","662","bandit","high_value","bandit-task","63","320517","0.0-9.0-0.18","50380","761995","lowRank"
"56","2","20","false","risky","safe","safe","50","931","bandit","decision","bandit-task","64","323865","0.0-9.0-0.19","50380","761995","lowRank"
"57","2","21","false","safe","risky","safe","50","552","bandit","decision","bandit-task","65","326817","0.0-9.0-0.20","50380","761995","lowRank"
"58","2","22","false","risky","safe","safe","90","788","bandit","high_value","bandit-task","66","330041","0.0-9.0-0.21","50380","761995","lowRank"
"59","2","23","false","risky","safe","safe","90","730","bandit","high_value","bandit-task","67","333180","0.0-9.0-0.22","50380","761995","lowRank"
"60","2","24","false","safe","risky","safe","50","777","bandit","decision","bandit-task","68","336488","0.0-9.0-0.23","50380","761995","lowRank"
"61","2","25","false","safe","risky","safe","50","561","bandit","decision","bandit-task","69","339750","0.0-9.0-0.24","50380","761995","lowRank"
"62","2","26","false","risky","safe","safe","90","773","bandit","high_value","bandit-task","70","342963","0.0-9.0-0.25","50380","761995","lowRank"
"63","2","27","false","safe","risky","safe","90","588","bandit","high_value","bandit-task","71","345935","0.0-9.0-0.26","50380","761995","lowRank"
"64","2","28","false","safe","risky","safe","90","507","bandit","high_value","bandit-task","72","348982","0.0-9.0-0.27","50380","761995","lowRank"
"65","2","29","false","risky","safe","safe","90","810","bandit","high_value","bandit-task","73","352179","0.0-9.0-0.28","50380","761995","lowRank"
"66","2","30","false","safe","risky","safe","90","539","bandit","high_value","bandit-task","74","355161","0.0-9.0-0.29","50380","761995","lowRank"
"67","2","31","false","safe","risky","safe","90","567","bandit","high_value","bandit-task","75","358031","0.0-9.0-0.30","50380","761995","lowRank"
"68","2","32","false","risky","safe","safe","50","752","bandit","decision","bandit-task","76","361221","0.0-9.0-0.31","50380","761995","lowRank"
"69","2","33","false","risky","safe","safe","50","549","bandit","decision","bandit-task","77","364211","0.0-9.0-0.32","50380","761995","lowRank"
"70","2","34","false","risky","safe","safe","90","678","bandit","high_value","bandit-task","78","367367","0.0-9.0-0.33","50380","761995","lowRank"
"71","2","35","false","risky","safe","safe","50","573","bandit","decision","bandit-task","79","370414","0.0-9.0-0.34","50380","761995","lowRank"
"72","2","36","false","safe","risky","safe","90","635","bandit","high_value","bandit-task","80","373375","0.0-9.0-0.35","50380","761995","lowRank"
"73","3","1","false","safe","risky","safe","50","753","bandit","decision","bandit-task","82","378706","0.0-11.0-0.0","50380","761995","lowRank"
"74","3","2","false","safe","risky","safe","90","741","bandit","high_value","bandit-task","83","382254","0.0-11.0-0.1","50380","761995","lowRank"
"75","3","3","false","risky","safe","safe","90","542","bandit","high_value","bandit-task","84","385244","0.0-11.0-0.2","50380","761995","lowRank"
"76","3","4","false","risky","safe","safe","90","536","bandit","high_value","bandit-task","85","388157","0.0-11.0-0.3","50380","761995","lowRank"
"77","3","5","false","safe","risky","safe","50","715","bandit","decision","bandit-task","86","391448","0.0-11.0-0.4","50380","761995","lowRank"
"78","3","6","false","safe","risky","safe","50","793","bandit","decision","bandit-task","87","394612","0.0-11.0-0.5","50380","761995","lowRank"
"79","3","7","false","safe","risky","safe","90","641","bandit","high_value","bandit-task","88","397618","0.0-11.0-0.6","50380","761995","lowRank"
"80","3","8","false","risky","safe","safe","90","708","bandit","high_value","bandit-task","89","400665","0.0-11.0-0.7","50380","761995","lowRank"
"81","3","9","false","safe","risky","safe","90","572","bandit","high_value","bandit-task","90","403756","0.0-11.0-0.8","50380","761995","lowRank"
"82","3","10","false","risky","safe","safe","90","616","bandit","high_value","bandit-task","91","406725","0.0-11.0-0.9","50380","761995","lowRank"
"83","3","11","false","safe","risky","safe","10","1136","bandit","low_value","bandit-task","92","410391","0.0-11.0-0.10","50380","761995","lowRank"
"84","3","12","false","safe","risky","safe","50","922","bandit","decision","bandit-task","93","413643","0.0-11.0-0.11","50380","761995","lowRank"
"85","3","13","false","safe","risky","safe","90","614","bandit","high_value","bandit-task","94","416635","0.0-11.0-0.12","50380","761995","lowRank"
"86","3","14","false","safe","risky","safe","90","662","bandit","high_value","bandit-task","95","419657","0.0-11.0-0.13","50380","761995","lowRank"
"87","3","15","false","risky","safe","safe","50","614","bandit","decision","bandit-task","96","422970","0.0-11.0-0.14","50380","761995","lowRank"
"88","3","16","false","risky","safe","safe","10","960","bandit","low_value","bandit-task","97","426327","0.0-11.0-0.15","50380","761995","lowRank"
"89","3","17","false","risky","safe","safe","90","722","bandit","high_value","bandit-task","98","429754","0.0-11.0-0.16","50380","761995","lowRank"
"90","3","18","false","risky","safe","safe","10","737","bandit","low_value","bandit-task","99","432851","0.0-11.0-0.17","50380","761995","lowRank"
"91","3","19","false","risky","safe","safe","90","887","bandit","high_value","bandit-task","100","436061","0.0-11.0-0.18","50380","761995","lowRank"
"92","3","20","false","safe","risky","safe","90","711","bandit","high_value","bandit-task","101","439138","0.0-11.0-0.19","50380","761995","lowRank"
"93","3","21","false","risky","safe","safe","50","737","bandit","decision","bandit-task","102","442157","0.0-11.0-0.20","50380","761995","lowRank"
"94","3","22","false","risky","safe","safe","90","774","bandit","high_value","bandit-task","103","445250","0.0-11.0-0.21","50380","761995","lowRank"
"95","3","23","false","safe","risky","safe","90","652","bandit","high_value","bandit-task","104","448224","0.0-11.0-0.22","50380","761995","lowRank"
"96","3","24","false","risky","safe","safe","90","645","bandit","high_value","bandit-task","105","451304","0.0-11.0-0.23","50380","761995","lowRank"
"97","3","25","false","safe","risky","safe","50","738","bandit","decision","bandit-task","106","454444","0.0-11.0-0.24","50380","761995","lowRank"
"98","3","26","false","risky","safe","safe","50","717","bandit","decision","bandit-task","107","457481","0.0-11.0-0.25","50380","761995","lowRank"
"99","3","27","false","safe","risky","safe","90","627","bandit","high_value","bandit-task","108","460663","0.0-11.0-0.26","50380","761995","lowRank"
"100","3","28","false","safe","risky","safe","50","822","bandit","decision","bandit-task","109","463887","0.0-11.0-0.27","50380","761995","lowRank"
"101","3","29","false","risky","safe","safe","50","718","bandit","decision","bandit-task","110","466939","0.0-11.0-0.28","50380","761995","lowRank"
"102","3","30","false","risky","safe","safe","10","1339","bandit","low_value","bandit-task","111","470612","0.0-11.0-0.29","50380","761995","lowRank"
"103","3","31","false","safe","risky","safe","90","757","bandit","high_value","bandit-task","112","473817","0.0-11.0-0.30","50380","761995","lowRank"
"104","3","32","false","safe","risky","safe","90","684","bandit","high_value","bandit-task","113","476908","0.0-11.0-0.31","50380","761995","lowRank"
"105","3","33","false","risky","safe","safe","50","1016","bandit","decision","bandit-task","114","480427","0.0-11.0-0.32","50380","761995","lowRank"
"106","3","34","false","safe","risky","safe","90","585","bandit","high_value","bandit-task","115","483394","0.0-11.0-0.33","50380","761995","lowRank"
"107","3","35","false","risky","safe","safe","50","653","bandit","decision","bandit-task","116","486355","0.0-11.0-0.34","50380","761995","lowRank"
"108","3","36","false","risky","safe","safe","90","945","bandit","high_value","bandit-task","117","489768","0.0-11.0-0.35","50380","761995","lowRank"
"109","4","1","false","risky","safe","safe","90","642","bandit","high_value","bandit-task","119","493911","0.0-13.0-0.0","50380","761995","lowRank"
"110","4","2","false","safe","risky","safe","50","713","bandit","decision","bandit-task","120","497047","0.0-13.0-0.1","50380","761995","lowRank"
"111","4","3","false","risky","safe","safe","90","572","bandit","high_value","bandit-task","121","499946","0.0-13.0-0.2","50380","761995","lowRank"
"112","4","4","false","risky","safe","safe","10","906","bandit","low_value","bandit-task","122","503454","0.0-13.0-0.3","50380","761995","lowRank"
"113","4","5","false","safe","risky","safe","90","743","bandit","high_value","bandit-task","123","506595","0.0-13.0-0.4","50380","761995","lowRank"
"114","4","6","false","safe","risky","safe","90","726","bandit","high_value","bandit-task","124","509643","0.0-13.0-0.5","50380","761995","lowRank"
"115","4","7","false","risky","safe","safe","90","767","bandit","high_value","bandit-task","125","512717","0.0-13.0-0.6","50380","761995","lowRank"
"116","4","8","false","risky","safe","safe","50","992","bandit","decision","bandit-task","126","516029","0.0-13.0-0.7","50380","761995","lowRank"
"117","4","9","false","risky","safe","safe","50","640","bandit","decision","bandit-task","127","519042","0.0-13.0-0.8","50380","761995","lowRank"
"118","4","10","false","risky","safe","safe","50","542","bandit","decision","bandit-task","128","521890","0.0-13.0-0.9","50380","761995","lowRank"
"119","4","11","false","risky","safe","safe","50","530","bandit","decision","bandit-task","129","525032","0.0-13.0-0.10","50380","761995","lowRank"
"120","4","12","false","safe","risky","safe","90","688","bandit","high_value","bandit-task","130","528044","0.0-13.0-0.11","50380","761995","lowRank"
"121","4","13","false","safe","risky","safe","50","582","bandit","decision","bandit-task","131","530945","0.0-13.0-0.12","50380","761995","lowRank"
"122","4","14","false","safe","risky","safe","90","520","bandit","high_value","bandit-task","132","533817","0.0-13.0-0.13","50380","761995","lowRank"
"123","4","15","false","risky","safe","safe","50","578","bandit","decision","bandit-task","133","536908","0.0-13.0-0.14","50380","761995","lowRank"
"124","4","16","false","safe","risky","safe","90","566","bandit","high_value","bandit-task","134","539859","0.0-13.0-0.15","50380","761995","lowRank"
"125","4","17","false","risky","safe","safe","90","521","bandit","high_value","bandit-task","135","542744","0.0-13.0-0.16","50380","761995","lowRank"
"126","4","18","false","risky","safe","safe","50","657","bandit","decision","bandit-task","136","545750","0.0-13.0-0.17","50380","761995","lowRank"
"127","4","19","false","risky","safe","safe","90","614","bandit","high_value","bandit-task","137","548704","0.0-13.0-0.18","50380","761995","lowRank"
"128","4","20","false","safe","risky","safe","50","634","bandit","decision","bandit-task","138","552016","0.0-13.0-0.19","50380","761995","lowRank"
"129","4","21","false","risky","safe","safe","90","587","bandit","high_value","bandit-task","139","555097","0.0-13.0-0.20","50380","761995","lowRank"
"130","4","22","false","safe","risky","safe","90","528","bandit","high_value","bandit-task","140","557925","0.0-13.0-0.21","50380","761995","lowRank"
"131","4","23","false","risky","safe","safe","50","581","bandit","decision","bandit-task","141","560827","0.0-13.0-0.22","50380","761995","lowRank"
"132","4","24","false","safe","risky","safe","50","484","bandit","decision","bandit-task","142","563619","0.0-13.0-0.23","50380","761995","lowRank"
"133","4","25","false","risky","safe","safe","10","1193","bandit","low_value","bandit-task","143","567271","0.0-13.0-0.24","50380","761995","lowRank"
"134","4","26","false","safe","risky","safe","90","675","bandit","high_value","bandit-task","144","570354","0.0-13.0-0.25","50380","761995","lowRank"
"135","4","27","false","safe","risky","safe","90","725","bandit","high_value","bandit-task","145","573444","0.0-13.0-0.26","50380","761995","lowRank"
"136","4","28","false","safe","risky","safe","10","1426","bandit","low_value","bandit-task","146","577275","0.0-13.0-0.27","50380","761995","lowRank"
"137","4","29","false","risky","safe","safe","90","715","bandit","high_value","bandit-task","147","580300","0.0-13.0-0.28","50380","761995","lowRank"
"138","4","30","false","risky","safe","safe","90","733","bandit","high_value","bandit-task","148","583416","0.0-13.0-0.29","50380","761995","lowRank"
"139","4","31","false","risky","safe","safe","90","664","bandit","high_value","bandit-task","149","586514","0.0-13.0-0.30","50380","761995","lowRank"
"140","4","32","false","risky","safe","safe","10","873","bandit","low_value","bandit-task","150","589804","0.0-13.0-0.31","50380","761995","lowRank"
"141","4","33","false","safe","risky","safe","50","659","bandit","decision","bandit-task","151","592950","0.0-13.0-0.32","50380","761995","lowRank"
"142","4","34","false","safe","risky","safe","90","1104","bandit","high_value","bandit-task","152","596374","0.0-13.0-0.33","50380","761995","lowRank"
"143","4","35","false","safe","risky","safe","90","582","bandit","high_value","bandit-task","153","599336","0.0-13.0-0.34","50380","761995","lowRank"
"144","4","36","false","safe","risky","safe","90","514","bandit","high_value","bandit-task","154","602199","0.0-13.0-0.35","50380","761995","lowRank"
"145","5","1","false","risky","safe","safe","90","726","bandit","high_value","bandit-task","156","606686","0.0-15.0-0.0","50380","761995","lowRank"
"146","5","2","false","safe","risky","safe","90","590","bandit","high_value","bandit-task","157","609580","0.0-15.0-0.1","50380","761995","lowRank"
"147","5","3","false","risky","safe","safe","50","608","bandit","decision","bandit-task","158","612639","0.0-15.0-0.2","50380","761995","lowRank"
"148","5","4","false","risky","safe","safe","50","614","bandit","decision","bandit-task","159","615689","0.0-15.0-0.3","50380","761995","lowRank"
"149","5","5","false","risky","safe","safe","90","1114","bandit","high_value","bandit-task","160","619277","0.0-15.0-0.4","50380","761995","lowRank"
"150","5","6","false","safe","risky","safe","90","703","bandit","high_value","bandit-task","161","622464","0.0-15.0-0.5","50380","761995","lowRank"
"151","5","7","false","risky","safe","safe","90","591","bandit","high_value","bandit-task","162","625606","0.0-15.0-0.6","50380","761995","lowRank"
"152","5","8","false","safe","risky","safe","50","635","bandit","decision","bandit-task","163","628655","0.0-15.0-0.7","50380","761995","lowRank"
"153","5","9","false","safe","risky","safe","10","975","bandit","low_value","bandit-task","164","632092","0.0-15.0-0.8","50380","761995","lowRank"
"154","5","10","false","risky","safe","safe","90","602","bandit","high_value","bandit-task","165","635133","0.0-15.0-0.9","50380","761995","lowRank"
"155","5","11","false","risky","safe","safe","90","561","bandit","high_value","bandit-task","166","638080","0.0-15.0-0.10","50380","761995","lowRank"
"156","5","12","false","safe","risky","safe","90","557","bandit","high_value","bandit-task","167","640996","0.0-15.0-0.11","50380","761995","lowRank"
"157","5","13","false","risky","safe","safe","90","585","bandit","high_value","bandit-task","168","643944","0.0-15.0-0.12","50380","761995","lowRank"
"158","5","14","false","safe","risky","safe","50","558","bandit","decision","bandit-task","169","646815","0.0-15.0-0.13","50380","761995","lowRank"
"159","5","15","false","safe","risky","safe","50","653","bandit","decision","bandit-task","170","649970","0.0-15.0-0.14","50380","761995","lowRank"
"160","5","16","false","risky","safe","safe","90","642","bandit","high_value","bandit-task","171","652992","0.0-15.0-0.15","50380","761995","lowRank"
"161","5","17","false","risky","safe","safe","10","878","bandit","low_value","bandit-task","172","656365","0.0-15.0-0.16","50380","761995","lowRank"
"162","5","18","false","risky","safe","safe","50","688","bandit","decision","bandit-task","173","659407","0.0-15.0-0.17","50380","761995","lowRank"
"163","5","19","false","safe","risky","safe","50","572","bandit","decision","bandit-task","174","662368","0.0-15.0-0.18","50380","761995","lowRank"
"164","5","20","false","safe","risky","safe","90","697","bandit","high_value","bandit-task","175","665487","0.0-15.0-0.19","50380","761995","lowRank"
"165","5","21","false","risky","safe","safe","10","605","bandit","low_value","bandit-task","176","668511","0.0-15.0-0.20","50380","761995","lowRank"
"166","5","22","false","risky","safe","safe","90","615","bandit","high_value","bandit-task","177","671525","0.0-15.0-0.21","50380","761995","lowRank"
"167","5","23","false","safe","risky","safe","50","640","bandit","decision","bandit-task","178","674531","0.0-15.0-0.22","50380","761995","lowRank"
"168","5","24","false","safe","risky","safe","90","940","bandit","high_value","bandit-task","179","677787","0.0-15.0-0.23","50380","761995","lowRank"
"169","5","25","false","risky","safe","safe","50","603","bandit","decision","bandit-task","180","680760","0.0-15.0-0.24","50380","761995","lowRank"
"170","5","26","false","risky","safe","safe","90","634","bandit","high_value","bandit-task","181","683843","0.0-15.0-0.25","50380","761995","lowRank"
"171","5","27","false","risky","safe","safe","90","604","bandit","high_value","bandit-task","182","686836","0.0-15.0-0.26","50380","761995","lowRank"
"172","5","28","false","safe","risky","safe","90","618","bandit","high_value","bandit-task","183","689783","0.0-15.0-0.27","50380","761995","lowRank"
"173","5","29","false","risky","safe","safe","90","507","bandit","high_value","bandit-task","184","692621","0.0-15.0-0.28","50380","761995","lowRank"
"174","5","30","false","risky","safe","safe","50","524","bandit","decision","bandit-task","185","695534","0.0-15.0-0.29","50380","761995","lowRank"
"175","5","31","false","safe","risky","safe","90","651","bandit","high_value","bandit-task","186","698503","0.0-15.0-0.30","50380","761995","lowRank"
"176","5","32","false","risky","safe","safe","90","508","bandit","high_value","bandit-task","187","701465","0.0-15.0-0.31","50380","761995","lowRank"
"177","5","33","false","risky","safe","safe","50","483","bandit","decision","bandit-task","188","704262","0.0-15.0-0.32","50380","761995","lowRank"
"178","5","34","false","risky","safe","safe","90","528","bandit","high_value","bandit-task","189","707123","0.0-15.0-0.33","50380","761995","lowRank"
"179","5","35","false","safe","risky","safe","10","1067","bandit","low_value","bandit-task","190","710533","0.0-15.0-0.34","50380","761995","lowRank"
"180","5","36","false","safe","risky","safe","50","689","bandit","decision","bandit-task","191","713624","0.0-15.0-0.35","50380","761995","lowRank"
"181","5","37","false","safe","safe","safe","50","2768","bandit","catch","bandit-task","204","805135","0.0-23.0-0.0","50380","761995","lowRank"
"182","5","38","false","safe","risky","risky","30","2296","bandit","catch","bandit-task","205","809970","0.0-23.0-0.1","50380","761995","lowRank"
"183","5","39","false","risky","risky","risky","80","1624","bandit","catch","bandit-task","206","813929","0.0-23.0-0.2","50380","761995","lowRank"
"184","5","40","false","risky","safe","safe","90","969","bandit","catch","bandit-task","207","817399","0.0-23.0-0.3","50380","761995","lowRank"
"185","5","41","false","risky","risky","risky","30","1130","bandit","catch","bandit-task","208","820858","0.0-23.0-0.4","50380","761995","lowRank"
"186","5","42","false","safe","safe","safe","90","1238","bandit","catch","bandit-task","209","824479","0.0-23.0-0.5","50380","761995","lowRank"
"187","5","43","false","risky","safe","safe","90","1086","bandit","catch","bandit-task","210","828071","0.0-23.0-0.6","50380","761995","lowRank"
"188","5","44","false","risky","risky","risky","100","1684","bandit","catch","bandit-task","211","832079","0.0-23.0-0.7","50380","761995","lowRank"
"189","5","45","false","safe","risky","risky","80","1501","bandit","catch","bandit-task","212","836003","0.0-23.0-0.8","50380","761995","lowRank"
"190","5","46","false","safe","safe","safe","90","875","bandit","catch","bandit-task","213","839320","0.0-23.0-0.9","50380","761995","lowRank"
"191","5","47","false","risky","safe","risky","80","2214","bandit","catch","bandit-task","214","843866","0.0-23.0-0.10","50380","761995","lowRank"
"192","5","48","false","risky","safe","safe","50","1123","bandit","catch","bandit-task","215","847397","0.0-23.0-0.11","50380","761995","lowRank"
"193","5","49","false","risky","safe","risky","80","1369","bandit","catch","bandit-task","216","851301","0.0-23.0-0.12","50380","761995","lowRank"
"194","5","50","false","safe","safe","safe","50","1142","bandit","catch","bandit-task","217","854929","0.0-23.0-0.13","50380","761995","lowRank"
"195","5","51","false","risky","safe","safe","90","1746","bandit","catch","bandit-task","218","859160","0.0-23.0-0.14","50380","761995","lowRank"
"196","5","52","false","risky","risky","risky","80","1057","bandit","catch","bandit-task","219","862550","0.0-23.0-0.15","50380","761995","lowRank"
"197","5","53","false","risky","safe","risky","80","1117","bandit","catch","bandit-task","220","866022","0.0-23.0-0.16","50380","761995","lowRank"
"198","5","54","false","risky","safe","safe","90","974","bandit","catch","bandit-task","221","869485","0.0-23.0-0.17","50380","761995","lowRank"
"199","5","55","false","safe","risky","risky","30","1427","bandit","catch","bandit-task","222","873382","0.0-23.0-0.18","50380","761995","lowRank"
"200","5","56","false","risky","risky","risky","100","963","bandit","catch","bandit-task","223","876793","0.0-23.0-0.19","50380","761995","lowRank"
"201","5","57","false","safe","safe","safe","90","930","bandit","catch","bandit-task","224","880106","0.0-23.0-0.20","50380","761995","lowRank"
"202","5","58","false","risky","risky","risky","70","1460","bandit","catch","bandit-task","225","884074","0.0-23.0-0.21","50380","761995","lowRank"
"203","5","59","false","safe","risky","safe","50","900","bandit","catch","bandit-task","226","887441","0.0-23.0-0.22","50380","761995","lowRank"
"204","5","60","false","safe","safe","safe","90","999","bandit","catch","bandit-task","227","890912","0.0-23.0-0.23","50380","761995","lowRank"
