"banditTrial","block","trialInBlock","singleOption","leftOption","rightOption","choice","feedback","rt","task","choiceType","trial_type","trial_index","time_elapsed","internal_node_id","participant","turkCode","condition"
"1","1","1","false","safe","risky","risky","100","3027","bandit","high_value","bandit-task","8","97542","0.0-7.0-0.0","18398","910532","lowRank"
"2","1","2","false","risky","safe","safe","10","1831","bandit","low_value","bandit-task","9","102760","0.0-7.0-0.1","18398","910532","lowRank"
"3","1","3","false","risky","safe","risky","70","1352","bandit","decision","bandit-task","10","107071","0.0-7.0-0.2","18398","910532","lowRank"
"4","1","4","false","risky","safe","safe","50","2245","bandit","decision","bandit-task","11","112156","0.0-7.0-0.3","18398","910532","lowRank"
"5","1","5","false","risky","safe","risky","80","1487","bandit","high_value","bandit-task","12","116226","0.0-7.0-0.4","18398","910532","lowRank"
"6","1","6","false","risky","safe","safe","90","1811","bandit","high_value","bandit-task","13","120900","0.0-7.0-0.5","18398","910532","lowRank"
"7","1","7","false","safe","risky","risky","70","995","bandit","decision","bandit-task","14","124483","0.0-7.0-0.6","18398","910532","lowRank"
"8","1","8","false","risky","safe","risky","100","947","bandit","high_value","bandit-task","15","128394","0.0-7.0-0.7","18398","910532","lowRank"
"9","1","9","false","safe","risky","risky","70","1417","bandit","decision","bandit-task","16","132719","0.0-7.0-0.8","18398","910532","lowRank"
"10","1","10","false","risky","safe","risky","100","1054","bandit","high_value","bandit-task","17","136359","0.0-7.0-0.9","18398","910532","lowRank"
"11","1","11","false","safe","risky","risky","20","1264","bandit","low_value","bandit-task","18","140594","0.0-7.0-0.10","18398","910532","lowRank"
"12","1","12","false","safe","risky","risky","80","901","bandit","high_value","bandit-task","19","144013","0.0-7.0-0.11","18398","910532","lowRank"
"13","1","13","false","safe","risky","risky","100","869","bandit","high_value","bandit-task","20","148583","0.0-7.0-0.12","18398","910532","lowRank"
"14","1","14","false","safe","risky","risky","70","1013","bandit","decision","bandit-task","21","152249","0.0-7.0-0.13","18398","910532","lowRank"
"15","1","15","false","safe","risky","risky","100","777","bandit","high_value","bandit-task","22","155635","0.0-7.0-0.14","18398","910532","lowRank"
"16","1","16","false","safe","risky","risky","30","926","bandit","decision","bandit-task","23","159325","0.0-7.0-0.15","18398","910532","lowRank"
"17","1","17","false","risky","safe","risky","100","744","bandit","high_value","bandit-task","24","162840","0.0-7.0-0.16","18398","910532","lowRank"
"18","1","18","false","risky","safe","risky","80","1021","bandit","high_value","bandit-task","25","166448","0.0-7.0-0.17","18398","910532","lowRank"
"19","1","19","false","safe","risky","safe","10","3101","bandit","low_value","bandit-task","26","172185","0.0-7.0-0.18","18398","910532","lowRank"
"20","1","20","false","safe","risky","risky","100","655","bandit","high_value","bandit-task","27","175429","0.0-7.0-0.19","18398","910532","lowRank"
"21","1","21","false","risky","safe","risky","80","685","bandit","high_value","bandit-task","28","178669","0.0-7.0-0.20","18398","910532","lowRank"
"22","1","22","false","risky","safe","risky","30","1037","bandit","decision","bandit-task","29","182323","0.0-7.0-0.21","18398","910532","lowRank"
"23","1","23","false","safe","risky","risky","100","646","bandit","high_value","bandit-task","30","185941","0.0-7.0-0.22","18398","910532","lowRank"
"24","1","24","false","risky","safe","risky","80","704","bandit","high_value","bandit-task","31","189192","0.0-7.0-0.23","18398","910532","lowRank"
"25","1","25","false","risky","safe","risky","20","2517","bandit","low_value","bandit-task","32","194250","0.0-7.0-0.24","18398","910532","lowRank"
"26","1","26","false","risky","safe","risky","100","952","bandit","high_value","bandit-task","33","197742","0.0-7.0-0.25","18398","910532","lowRank"
"27","1","27","false","risky","safe","risky","30","945","bandit","decision","bandit-task","34","201310","0.0-7.0-0.26","18398","910532","lowRank"
"28","1","28","false","risky","safe","risky","80","737","bandit","high_value","bandit-task","35","204577","0.0-7.0-0.27","18398","910532","lowRank"
"29","1","29","false","risky","safe","risky","80","786","bandit","high_value","bandit-task","36","207777","0.0-7.0-0.28","18398","910532","lowRank"
"30","1","30","false","safe","risky","risky","80","874","bandit","high_value","bandit-task","37","211234","0.0-7.0-0.29","18398","910532","lowRank"
"31","1","31","false","safe","risky","safe","50","1165","bandit","decision","bandit-task","38","215193","0.0-7.0-0.30","18398","910532","lowRank"
"32","1","32","false","safe","risky","risky","100","771","bandit","high_value","bandit-task","39","218746","0.0-7.0-0.31","18398","910532","lowRank"
"33","1","33","false","risky","safe","risky","70","865","bandit","decision","bandit-task","40","222377","0.0-7.0-0.32","18398","910532","lowRank"
"34","1","34","false","safe","risky","risky","70","846","bandit","decision","bandit-task","41","225790","0.0-7.0-0.33","18398","910532","lowRank"
"35","1","35","false","risky","safe","safe","50","1449","bandit","decision","bandit-task","42","229775","0.0-7.0-0.34","18398","910532","lowRank"
"36","1","36","false","risky","safe","risky","80","759","bandit","high_value","bandit-task","43","233216","0.0-7.0-0.35","18398","910532","lowRank"
"37","2","1","false","safe","risky","risky","100","882","bandit","high_value","bandit-task","45","244049","0.0-9.0-0.0","18398","910532","lowRank"
"38","2","2","false","safe","risky","risky","100","757","bandit","high_value","bandit-task","46","247189","0.0-9.0-0.1","18398","910532","lowRank"
"39","2","3","false","risky","safe","safe","50","1532","bandit","decision","bandit-task","47","251084","0.0-9.0-0.2","18398","910532","lowRank"
"40","2","4","false","safe","risky","risky","30","1360","bandit","decision","bandit-task","48","254834","0.0-9.0-0.3","18398","910532","lowRank"
"41","2","5","false","risky","safe","risky","100","669","bandit","high_value","bandit-task","49","257930","0.0-9.0-0.4","18398","910532","lowRank"
"42","2","6","false","safe","risky","safe","50","1145","bandit","decision","bandit-task","50","261548","0.0-9.0-0.5","18398","910532","lowRank"
"43","2","7","false","safe","risky","safe","50","993","bandit","decision","bandit-task","51","264947","0.0-9.0-0.6","18398","910532","lowRank"
"44","2","8","false","safe","risky","risky","0","1986","bandit","low_value","bandit-task","52","269370","0.0-9.0-0.7","18398","910532","lowRank"
"45","2","9","false","risky","safe","risky","80","705","bandit","high_value","bandit-task","53","272692","0.0-9.0-0.8","18398","910532","lowRank"
"46","2","10","false","safe","risky","risky","80","1053","bandit","high_value","bandit-task","54","276506","0.0-9.0-0.9","18398","910532","lowRank"
"47","2","11","false","safe","risky","risky","0","1389","bandit","low_value","bandit-task","55","280646","0.0-9.0-0.10","18398","910532","lowRank"
"48","2","12","false","safe","risky","safe","50","1663","bandit","decision","bandit-task","56","284980","0.0-9.0-0.11","18398","910532","lowRank"
"49","2","13","false","risky","safe","risky","80","729","bandit","high_value","bandit-task","57","288534","0.0-9.0-0.12","18398","910532","lowRank"
"50","2","14","false","safe","risky","safe","50","1177","bandit","decision","bandit-task","58","292486","0.0-9.0-0.13","18398","910532","lowRank"
"51","2","15","false","safe","risky","risky","100","1141","bandit","high_value","bandit-task","59","296267","0.0-9.0-0.14","18398","910532","lowRank"
"52","2","16","false","risky","safe","risky","80","717","bandit","high_value","bandit-task","60","299598","0.0-9.0-0.15","18398","910532","lowRank"
"53","2","17","false","safe","risky","risky","30","2287","bandit","decision","bandit-task","61","304472","0.0-9.0-0.16","18398","910532","lowRank"
"54","2","18","false","safe","risky","risky","80","831","bandit","high_value","bandit-task","62","307783","0.0-9.0-0.17","18398","910532","lowRank"
"55","2","19","false","risky","safe","risky","100","814","bandit","high_value","bandit-task","63","311088","0.0-9.0-0.18","18398","910532","lowRank"
"56","2","20","false","risky","safe","risky","70","1402","bandit","decision","bandit-task","64","314904","0.0-9.0-0.19","18398","910532","lowRank"
"57","2","21","false","safe","risky","risky","100","1129","bandit","high_value","bandit-task","65","318545","0.0-9.0-0.20","18398","910532","lowRank"
"58","2","22","false","risky","safe","risky","30","748","bandit","decision","bandit-task","66","321951","0.0-9.0-0.21","18398","910532","lowRank"
"59","2","23","false","safe","risky","safe","50","1487","bandit","decision","bandit-task","67","326276","0.0-9.0-0.22","18398","910532","lowRank"
"60","2","24","false","risky","safe","safe","50","739","bandit","decision","bandit-task","68","329576","0.0-9.0-0.23","18398","910532","lowRank"
"61","2","25","false","risky","safe","risky","100","690","bandit","high_value","bandit-task","69","332801","0.0-9.0-0.24","18398","910532","lowRank"
"62","2","26","false","safe","risky","risky","70","2379","bandit","decision","bandit-task","70","337695","0.0-9.0-0.25","18398","910532","lowRank"
"63","2","27","false","risky","safe","safe","10","1448","bandit","low_value","bandit-task","71","341678","0.0-9.0-0.26","18398","910532","lowRank"
"64","2","28","false","risky","safe","risky","100","943","bandit","high_value","bandit-task","72","345268","0.0-9.0-0.27","18398","910532","lowRank"
"65","2","29","false","risky","safe","risky","80","812","bandit","high_value","bandit-task","73","348600","0.0-9.0-0.28","18398","910532","lowRank"
"66","2","30","false","risky","safe","risky","100","565","bandit","high_value","bandit-task","74","351901","0.0-9.0-0.29","18398","910532","lowRank"
"67","2","31","false","safe","risky","risky","80","1030","bandit","high_value","bandit-task","75","355492","0.0-9.0-0.30","18398","910532","lowRank"
"68","2","32","false","risky","safe","risky","100","621","bandit","high_value","bandit-task","76","358531","0.0-9.0-0.31","18398","910532","lowRank"
"69","2","33","false","risky","safe","safe","10","2150","bandit","low_value","bandit-task","77","363652","0.0-9.0-0.32","18398","910532","lowRank"
"70","2","34","false","safe","risky","risky","100","888","bandit","high_value","bandit-task","78","367077","0.0-9.0-0.33","18398","910532","lowRank"
"71","2","35","false","safe","risky","risky","80","742","bandit","high_value","bandit-task","79","370719","0.0-9.0-0.34","18398","910532","lowRank"
"72","2","36","false","safe","risky","risky","100","604","bandit","high_value","bandit-task","80","373900","0.0-9.0-0.35","18398","910532","lowRank"
"73","3","1","false","risky","safe","risky","80","818","bandit","high_value","bandit-task","82","379103","0.0-11.0-0.0","18398","910532","lowRank"
"74","3","2","false","safe","risky","safe","10","1292","bandit","low_value","bandit-task","83","382869","0.0-11.0-0.1","18398","910532","lowRank"
"75","3","3","false","safe","risky","risky","70","1214","bandit","decision","bandit-task","84","386475","0.0-11.0-0.2","18398","910532","lowRank"
"76","3","4","false","safe","risky","risky","80","766","bandit","high_value","bandit-task","85","389826","0.0-11.0-0.3","18398","910532","lowRank"
"77","3","5","false","safe","risky","safe","90","800","bandit","high_value","bandit-task","86","393221","0.0-11.0-0.4","18398","910532","lowRank"
"78","3","6","false","risky","safe","safe","50","2775","bandit","decision","bandit-task","87","398585","0.0-11.0-0.5","18398","910532","lowRank"
"79","3","7","false","safe","risky","safe","50","1732","bandit","decision","bandit-task","88","402844","0.0-11.0-0.6","18398","910532","lowRank"
"80","3","8","false","safe","risky","safe","90","756","bandit","high_value","bandit-task","89","406176","0.0-11.0-0.7","18398","910532","lowRank"
"81","3","9","false","safe","risky","risky","80","643","bandit","high_value","bandit-task","90","409428","0.0-11.0-0.8","18398","910532","lowRank"
"82","3","10","false","safe","risky","risky","0","1052","bandit","low_value","bandit-task","91","413064","0.0-11.0-0.9","18398","910532","lowRank"
"83","3","11","false","risky","safe","risky","70","1054","bandit","decision","bandit-task","92","416737","0.0-11.0-0.10","18398","910532","lowRank"
"84","3","12","false","safe","risky","safe","50","1446","bandit","decision","bandit-task","93","420692","0.0-11.0-0.11","18398","910532","lowRank"
"85","3","13","false","safe","risky","risky","70","688","bandit","decision","bandit-task","94","423854","0.0-11.0-0.12","18398","910532","lowRank"
"86","3","14","false","safe","risky","safe","50","1326","bandit","decision","bandit-task","95","427790","0.0-11.0-0.13","18398","910532","lowRank"
"87","3","15","false","safe","risky","risky","30","586","bandit","decision","bandit-task","96","430958","0.0-11.0-0.14","18398","910532","lowRank"
"88","3","16","false","safe","risky","safe","90","522","bandit","high_value","bandit-task","97","433938","0.0-11.0-0.15","18398","910532","lowRank"
"89","3","17","false","safe","risky","risky","80","1025","bandit","high_value","bandit-task","98","437387","0.0-11.0-0.16","18398","910532","lowRank"
"90","3","18","false","risky","safe","risky","80","768","bandit","high_value","bandit-task","99","440704","0.0-11.0-0.17","18398","910532","lowRank"
"91","3","19","false","risky","safe","safe","90","519","bandit","high_value","bandit-task","100","443851","0.0-11.0-0.18","18398","910532","lowRank"
"92","3","20","false","risky","safe","safe","90","549","bandit","high_value","bandit-task","101","446801","0.0-11.0-0.19","18398","910532","lowRank"
"93","3","21","false","risky","safe","risky","30","966","bandit","decision","bandit-task","102","450284","0.0-11.0-0.20","18398","910532","lowRank"
"94","3","22","false","risky","safe","safe","50","479","bandit","decision","bandit-task","103","453362","0.0-11.0-0.21","18398","910532","lowRank"
"95","3","23","false","risky","safe","risky","80","634","bandit","high_value","bandit-task","104","456466","0.0-11.0-0.22","18398","910532","lowRank"
"96","3","24","false","safe","risky","risky","100","645","bandit","high_value","bandit-task","105","459822","0.0-11.0-0.23","18398","910532","lowRank"
"97","3","25","false","risky","safe","risky","100","658","bandit","high_value","bandit-task","106","462975","0.0-11.0-0.24","18398","910532","lowRank"
"98","3","26","false","safe","risky","risky","20","857","bandit","low_value","bandit-task","107","466301","0.0-11.0-0.25","18398","910532","lowRank"
"99","3","27","false","safe","risky","risky","80","723","bandit","high_value","bandit-task","108","469456","0.0-11.0-0.26","18398","910532","lowRank"
"100","3","28","false","risky","safe","risky","100","661","bandit","high_value","bandit-task","109","472645","0.0-11.0-0.27","18398","910532","lowRank"
"101","3","29","false","risky","safe","safe","10","730","bandit","low_value","bandit-task","110","475754","0.0-11.0-0.28","18398","910532","lowRank"
"102","3","30","false","safe","risky","safe","50","580","bandit","decision","bandit-task","111","478717","0.0-11.0-0.29","18398","910532","lowRank"
"103","3","31","false","safe","risky","risky","80","605","bandit","high_value","bandit-task","112","481808","0.0-11.0-0.30","18398","910532","lowRank"
"104","3","32","false","safe","risky","risky","80","612","bandit","high_value","bandit-task","113","485062","0.0-11.0-0.31","18398","910532","lowRank"
"105","3","33","false","safe","risky","risky","100","638","bandit","high_value","bandit-task","114","488338","0.0-11.0-0.32","18398","910532","lowRank"
"106","3","34","false","risky","safe","risky","100","1012","bandit","high_value","bandit-task","115","491948","0.0-11.0-0.33","18398","910532","lowRank"
"107","3","35","false","risky","safe","safe","50","857","bandit","decision","bandit-task","116","495328","0.0-11.0-0.34","18398","910532","lowRank"
"108","3","36","false","risky","safe","risky","100","627","bandit","high_value","bandit-task","117","498556","0.0-11.0-0.35","18398","910532","lowRank"
"109","4","1","false","safe","risky","risky","30","798","bandit","decision","bandit-task","119","503157","0.0-13.0-0.0","18398","910532","lowRank"
"110","4","2","false","risky","safe","risky","0","477","bandit","low_value","bandit-task","120","506034","0.0-13.0-0.1","18398","910532","lowRank"
"111","4","3","false","safe","risky","risky","100","519","bandit","high_value","bandit-task","121","509080","0.0-13.0-0.2","18398","910532","lowRank"
"112","4","4","false","safe","risky","risky","70","1042","bandit","decision","bandit-task","122","512558","0.0-13.0-0.3","18398","910532","lowRank"
"113","4","5","false","safe","risky","risky","80","828","bandit","high_value","bandit-task","123","515912","0.0-13.0-0.4","18398","910532","lowRank"
"114","4","6","false","safe","risky","risky","80","584","bandit","high_value","bandit-task","124","518978","0.0-13.0-0.5","18398","910532","lowRank"
"115","4","7","false","safe","risky","safe","90","526","bandit","high_value","bandit-task","125","521932","0.0-13.0-0.6","18398","910532","lowRank"
"116","4","8","false","risky","safe","risky","100","860","bandit","high_value","bandit-task","126","525196","0.0-13.0-0.7","18398","910532","lowRank"
"117","4","9","false","risky","safe","risky","80","713","bandit","high_value","bandit-task","127","528358","0.0-13.0-0.8","18398","910532","lowRank"
"118","4","10","false","risky","safe","safe","90","580","bandit","high_value","bandit-task","128","531378","0.0-13.0-0.9","18398","910532","lowRank"
"119","4","11","false","safe","risky","safe","90","556","bandit","high_value","bandit-task","129","534323","0.0-13.0-0.10","18398","910532","lowRank"
"120","4","12","false","risky","safe","safe","90","553","bandit","high_value","bandit-task","130","537282","0.0-13.0-0.11","18398","910532","lowRank"
"121","4","13","false","safe","risky","safe","50","588","bandit","decision","bandit-task","131","540324","0.0-13.0-0.12","18398","910532","lowRank"
"122","4","14","false","risky","safe","safe","90","429","bandit","high_value","bandit-task","132","543468","0.0-13.0-0.13","18398","910532","lowRank"
"123","4","15","false","risky","safe","risky","0","400","bandit","low_value","bandit-task","133","546306","0.0-13.0-0.14","18398","910532","lowRank"
"124","4","16","false","safe","risky","risky","80","445","bandit","high_value","bandit-task","134","549339","0.0-13.0-0.15","18398","910532","lowRank"
"125","4","17","false","safe","risky","risky","0","478","bandit","low_value","bandit-task","135","552202","0.0-13.0-0.16","18398","910532","lowRank"
"126","4","18","false","safe","risky","safe","90","526","bandit","high_value","bandit-task","136","555126","0.0-13.0-0.17","18398","910532","lowRank"
"127","4","19","false","risky","safe","safe","90","471","bandit","high_value","bandit-task","137","557989","0.0-13.0-0.18","18398","910532","lowRank"
"128","4","20","false","safe","risky","safe","50","1226","bandit","decision","bandit-task","138","561690","0.0-13.0-0.19","18398","910532","lowRank"
"129","4","21","false","risky","safe","safe","90","439","bandit","high_value","bandit-task","139","564560","0.0-13.0-0.20","18398","910532","lowRank"
"130","4","22","false","risky","safe","risky","70","528","bandit","decision","bandit-task","140","567517","0.0-13.0-0.21","18398","910532","lowRank"
