"banditTrial","block","trialInBlock","singleOption","leftOption","rightOption","choice","feedback","rt","task","choiceType","trial_type","trial_index","time_elapsed","internal_node_id","participant","turkCode","condition"
"1","1","1","false","risky","safe","risky","20","8492","bandit","low_value","bandit-task","11","265620","0.0-7.0-0.0","6179","401745","lowRank"
"2","1","2","false","risky","safe","safe","90","3124","bandit","high_value","bandit-task","12","273118","0.0-7.0-0.1","6179","401745","lowRank"
"3","1","3","false","risky","safe","safe","50","4176","bandit","decision","bandit-task","13","280312","0.0-7.0-0.2","6179","401745","lowRank"
"4","1","4","false","safe","risky","safe","90","2238","bandit","high_value","bandit-task","14","286514","0.0-7.0-0.3","6179","401745","lowRank"
"5","1","5","false","safe","risky","safe","90","5543","bandit","high_value","bandit-task","15","295682","0.0-7.0-0.4","6179","401745","lowRank"
"6","1","6","false","safe","risky","safe","90","5182","bandit","high_value","bandit-task","16","304723","0.0-7.0-0.5","6179","401745","lowRank"
"7","1","7","false","safe","risky","safe","90","2279","bandit","high_value","bandit-task","17","312452","0.0-7.0-0.6","6179","401745","lowRank"
"8","1","8","false","risky","safe","risky","30","4104","bandit","decision","bandit-task","18","319700","0.0-7.0-0.7","6179","401745","lowRank"
"9","1","9","false","risky","safe","safe","90","2192","bandit","high_value","bandit-task","19","325382","0.0-7.0-0.8","6179","401745","lowRank"
"10","1","10","false","risky","safe","safe","90","2103","bandit","high_value","bandit-task","20","330719","0.0-7.0-0.9","6179","401745","lowRank"
"11","1","11","false","risky","safe","safe","90","1491","bandit","high_value","bandit-task","21","335742","0.0-7.0-0.10","6179","401745","lowRank"
"12","1","12","false","risky","safe","safe","90","1982","bandit","high_value","bandit-task","22","341264","0.0-7.0-0.11","6179","401745","lowRank"
"13","1","13","false","risky","safe","safe","90","944","bandit","high_value","bandit-task","23","345691","0.0-7.0-0.12","6179","401745","lowRank"
"14","1","14","false","risky","safe","safe","90","1460","bandit","high_value","bandit-task","24","350489","0.0-7.0-0.13","6179","401745","lowRank"
"15","1","15","false","risky","safe","safe","50","5607","bandit","decision","bandit-task","25","359586","0.0-7.0-0.14","6179","401745","lowRank"
"16","1","16","false","safe","risky","risky","30","4618","bandit","decision","bandit-task","26","367608","0.0-7.0-0.15","6179","401745","lowRank"
"17","1","17","false","risky","safe","safe","50","4190","bandit","decision","bandit-task","27","374576","0.0-7.0-0.16","6179","401745","lowRank"
"18","1","18","false","safe","risky","safe","90","1458","bandit","high_value","bandit-task","28","379059","0.0-7.0-0.17","6179","401745","lowRank"
"19","1","19","false","safe","risky","safe","90","2166","bandit","high_value","bandit-task","29","384259","0.0-7.0-0.18","6179","401745","lowRank"
"20","1","20","false","risky","safe","safe","90","1147","bandit","high_value","bandit-task","30","388150","0.0-7.0-0.19","6179","401745","lowRank"
"21","1","21","false","safe","risky","safe","50","1757","bandit","decision","bandit-task","31","392714","0.0-7.0-0.20","6179","401745","lowRank"
"22","1","22","false","risky","safe","safe","90","954","bandit","high_value","bandit-task","32","396426","0.0-7.0-0.21","6179","401745","lowRank"
"23","1","23","false","risky","safe","safe","90","1324","bandit","high_value","bandit-task","33","400501","0.0-7.0-0.22","6179","401745","lowRank"
"24","1","24","false","risky","safe","risky","20","2417","bandit","low_value","bandit-task","34","406271","0.0-7.0-0.23","6179","401745","lowRank"
"25","1","25","false","safe","risky","safe","90","1235","bandit","high_value","bandit-task","35","409952","0.0-7.0-0.24","6179","401745","lowRank"
"26","1","26","false","risky","safe","safe","50","1783","bandit","decision","bandit-task","36","414693","0.0-7.0-0.25","6179","401745","lowRank"
"27","1","27","false","safe","risky","safe","90","1275","bandit","high_value","bandit-task","37","418551","0.0-7.0-0.26","6179","401745","lowRank"
"28","1","28","false","risky","safe","safe","50","1917","bandit","decision","bandit-task","38","422931","0.0-7.0-0.27","6179","401745","lowRank"
"29","1","29","false","risky","safe","safe","50","1910","bandit","decision","bandit-task","39","427319","0.0-7.0-0.28","6179","401745","lowRank"
"30","1","30","false","risky","safe","safe","10","1460","bandit","low_value","bandit-task","40","431836","0.0-7.0-0.29","6179","401745","lowRank"
"31","1","31","false","risky","safe","safe","50","1677","bandit","decision","bandit-task","41","436601","0.0-7.0-0.30","6179","401745","lowRank"
"32","1","32","false","safe","risky","safe","90","1147","bandit","high_value","bandit-task","42","440450","0.0-7.0-0.31","6179","401745","lowRank"
"33","1","33","false","safe","risky","safe","50","1108","bandit","decision","bandit-task","43","444414","0.0-7.0-0.32","6179","401745","lowRank"
"34","1","34","false","safe","risky","safe","90","1467","bandit","high_value","bandit-task","44","448382","0.0-7.0-0.33","6179","401745","lowRank"
"35","1","35","false","safe","risky","risky","20","1993","bandit","low_value","bandit-task","45","453045","0.0-7.0-0.34","6179","401745","lowRank"
"36","1","36","false","risky","safe","safe","50","1211","bandit","decision","bandit-task","46","457103","0.0-7.0-0.35","6179","401745","lowRank"
"37","2","1","false","safe","risky","safe","50","2305","bandit","decision","bandit-task","48","483365","0.0-9.0-0.0","6179","401745","lowRank"
"38","2","2","false","safe","risky","safe","90","1010","bandit","high_value","bandit-task","49","487867","0.0-9.0-0.1","6179","401745","lowRank"
"39","2","3","false","safe","risky","safe","50","2128","bandit","decision","bandit-task","50","493267","0.0-9.0-0.2","6179","401745","lowRank"
"40","2","4","false","risky","safe","safe","50","1051","bandit","decision","bandit-task","51","497415","0.0-9.0-0.3","6179","401745","lowRank"
"41","2","5","false","safe","risky","safe","90","832","bandit","high_value","bandit-task","52","500807","0.0-9.0-0.4","6179","401745","lowRank"
"42","2","6","false","risky","safe","safe","90","1009","bandit","high_value","bandit-task","53","504487","0.0-9.0-0.5","6179","401745","lowRank"
"43","2","7","false","safe","risky","safe","50","1396","bandit","decision","bandit-task","54","508842","0.0-9.0-0.6","6179","401745","lowRank"
"44","2","8","false","safe","risky","safe","90","932","bandit","high_value","bandit-task","55","513390","0.0-9.0-0.7","6179","401745","lowRank"
"45","2","9","false","safe","risky","safe","90","1211","bandit","high_value","bandit-task","56","517401","0.0-9.0-0.8","6179","401745","lowRank"
"46","2","10","false","safe","risky","safe","50","1981","bandit","decision","bandit-task","57","522536","0.0-9.0-0.9","6179","401745","lowRank"
"47","2","11","false","safe","risky","safe","90","1501","bandit","high_value","bandit-task","58","528034","0.0-9.0-0.10","6179","401745","lowRank"
"48","2","12","false","risky","safe","safe","90","905","bandit","high_value","bandit-task","59","531843","0.0-9.0-0.11","6179","401745","lowRank"
"49","2","13","false","safe","risky","risky","20","1443","bandit","low_value","bandit-task","60","537114","0.0-9.0-0.12","6179","401745","lowRank"
"50","2","14","false","safe","risky","safe","90","952","bandit","high_value","bandit-task","61","541483","0.0-9.0-0.13","6179","401745","lowRank"
"51","2","15","false","safe","risky","safe","90","1034","bandit","high_value","bandit-task","62","545736","0.0-9.0-0.14","6179","401745","lowRank"
"52","2","16","false","safe","risky","safe","90","896","bandit","high_value","bandit-task","63","549560","0.0-9.0-0.15","6179","401745","lowRank"
"53","2","17","false","risky","safe","safe","90","1212","bandit","high_value","bandit-task","64","553579","0.0-9.0-0.16","6179","401745","lowRank"
"54","2","18","false","risky","safe","safe","50","1749","bandit","decision","bandit-task","65","558335","0.0-9.0-0.17","6179","401745","lowRank"
"55","2","19","false","risky","safe","safe","90","891","bandit","high_value","bandit-task","66","563109","0.0-9.0-0.18","6179","401745","lowRank"
"56","2","20","false","risky","safe","safe","90","857","bandit","high_value","bandit-task","67","566749","0.0-9.0-0.19","6179","401745","lowRank"
"57","2","21","false","risky","safe","safe","90","793","bandit","high_value","bandit-task","68","570044","0.0-9.0-0.20","6179","401745","lowRank"
"58","2","22","false","risky","safe","risky","20","1090","bandit","low_value","bandit-task","69","573853","0.0-9.0-0.21","6179","401745","lowRank"
"59","2","23","false","risky","safe","safe","90","889","bandit","high_value","bandit-task","70","577228","0.0-9.0-0.22","6179","401745","lowRank"
"60","2","24","false","risky","safe","safe","50","1123","bandit","decision","bandit-task","71","580796","0.0-9.0-0.23","6179","401745","lowRank"
"61","2","25","false","risky","safe","safe","50","858","bandit","decision","bandit-task","72","584075","0.0-9.0-0.24","6179","401745","lowRank"
"62","2","26","false","safe","risky","risky","0","1202","bandit","low_value","bandit-task","73","588618","0.0-9.0-0.25","6179","401745","lowRank"
"63","2","27","false","risky","safe","safe","90","1246","bandit","high_value","bandit-task","74","592722","0.0-9.0-0.26","6179","401745","lowRank"
"64","2","28","false","risky","safe","safe","50","1074","bandit","decision","bandit-task","75","596546","0.0-9.0-0.27","6179","401745","lowRank"
"65","2","29","false","safe","risky","safe","90","937","bandit","high_value","bandit-task","76","600123","0.0-9.0-0.28","6179","401745","lowRank"
"66","2","30","false","risky","safe","safe","10","1651","bandit","low_value","bandit-task","77","604510","0.0-9.0-0.29","6179","401745","lowRank"
"67","2","31","false","risky","safe","safe","90","987","bandit","high_value","bandit-task","78","607965","0.0-9.0-0.30","6179","401745","lowRank"
"68","2","32","false","safe","risky","safe","50","1019","bandit","decision","bandit-task","79","611903","0.0-9.0-0.31","6179","401745","lowRank"
"69","2","33","false","risky","safe","safe","90","1468","bandit","high_value","bandit-task","80","615930","0.0-9.0-0.32","6179","401745","lowRank"
"70","2","34","false","risky","safe","safe","50","1057","bandit","decision","bandit-task","81","619489","0.0-9.0-0.33","6179","401745","lowRank"
"71","2","35","false","risky","safe","safe","90","978","bandit","high_value","bandit-task","82","622929","0.0-9.0-0.34","6179","401745","lowRank"
"72","2","36","false","risky","safe","safe","50","840","bandit","decision","bandit-task","83","626392","0.0-9.0-0.35","6179","401745","lowRank"
"73","3","1","false","risky","safe","safe","90","1598","bandit","high_value","bandit-task","85","659058","0.0-11.0-0.0","6179","401745","lowRank"
"74","3","2","false","risky","safe","safe","50","977","bandit","decision","bandit-task","86","662787","0.0-11.0-0.1","6179","401745","lowRank"
"75","3","3","false","safe","risky","safe","90","1114","bandit","high_value","bandit-task","87","666620","0.0-11.0-0.2","6179","401745","lowRank"
"76","3","4","false","safe","risky","safe","90","816","bandit","high_value","bandit-task","88","670109","0.0-11.0-0.3","6179","401745","lowRank"
"77","3","5","false","risky","safe","safe","90","1082","bandit","high_value","bandit-task","89","674183","0.0-11.0-0.4","6179","401745","lowRank"
"78","3","6","false","safe","risky","safe","50","1830","bandit","decision","bandit-task","90","678749","0.0-11.0-0.5","6179","401745","lowRank"
"79","3","7","false","risky","safe","risky","20","2464","bandit","low_value","bandit-task","91","684326","0.0-11.0-0.6","6179","401745","lowRank"
"80","3","8","false","risky","safe","safe","90","1010","bandit","high_value","bandit-task","92","688256","0.0-11.0-0.7","6179","401745","lowRank"
"81","3","9","false","risky","safe","safe","90","1315","bandit","high_value","bandit-task","93","692185","0.0-11.0-0.8","6179","401745","lowRank"
"82","3","10","false","safe","risky","safe","50","1011","bandit","decision","bandit-task","94","695659","0.0-11.0-0.9","6179","401745","lowRank"
"83","3","11","false","safe","risky","safe","90","983","bandit","high_value","bandit-task","95","699339","0.0-11.0-0.10","6179","401745","lowRank"
"84","3","12","false","risky","safe","safe","90","833","bandit","high_value","bandit-task","96","702691","0.0-11.0-0.11","6179","401745","lowRank"
"85","3","13","false","risky","safe","safe","90","937","bandit","high_value","bandit-task","97","706106","0.0-11.0-0.12","6179","401745","lowRank"
"86","3","14","false","safe","risky","safe","50","897","bandit","decision","bandit-task","98","709971","0.0-11.0-0.13","6179","401745","lowRank"
"87","3","15","false","safe","risky","safe","50","930","bandit","decision","bandit-task","99","713347","0.0-11.0-0.14","6179","401745","lowRank"
"88","3","16","false","safe","risky","safe","90","1098","bandit","high_value","bandit-task","100","717006","0.0-11.0-0.15","6179","401745","lowRank"
"89","3","17","false","risky","safe","safe","90","862","bandit","high_value","bandit-task","101","720353","0.0-11.0-0.16","6179","401745","lowRank"
"90","3","18","false","risky","safe","risky","20","955","bandit","low_value","bandit-task","102","723819","0.0-11.0-0.17","6179","401745","lowRank"
"91","3","19","false","risky","safe","safe","90","794","bandit","high_value","bandit-task","103","727130","0.0-11.0-0.18","6179","401745","lowRank"
"92","3","20","false","safe","risky","risky","0","1330","bandit","low_value","bandit-task","104","731517","0.0-11.0-0.19","6179","401745","lowRank"
"93","3","21","false","safe","risky","safe","50","1837","bandit","decision","bandit-task","105","735889","0.0-11.0-0.20","6179","401745","lowRank"
"94","3","22","false","risky","safe","safe","50","1195","bandit","decision","bandit-task","106","739578","0.0-11.0-0.21","6179","401745","lowRank"
"95","3","23","false","risky","safe","safe","90","896","bandit","high_value","bandit-task","107","742977","0.0-11.0-0.22","6179","401745","lowRank"
"96","3","24","false","risky","safe","safe","90","770","bandit","high_value","bandit-task","108","746264","0.0-11.0-0.23","6179","401745","lowRank"
"97","3","25","false","safe","risky","safe","90","906","bandit","high_value","bandit-task","109","749783","0.0-11.0-0.24","6179","401745","lowRank"
"98","3","26","false","risky","safe","safe","90","698","bandit","high_value","bandit-task","110","753023","0.0-11.0-0.25","6179","401745","lowRank"
"99","3","27","false","safe","risky","safe","90","761","bandit","high_value","bandit-task","111","756560","0.0-11.0-0.26","6179","401745","lowRank"
"100","3","28","false","risky","safe","risky","0","1909","bandit","low_value","bandit-task","112","761333","0.0-11.0-0.27","6179","401745","lowRank"
"101","3","29","false","risky","safe","safe","50","1048","bandit","decision","bandit-task","113","765319","0.0-11.0-0.28","6179","401745","lowRank"
"102","3","30","false","risky","safe","safe","90","880","bandit","high_value","bandit-task","114","768912","0.0-11.0-0.29","6179","401745","lowRank"
"103","3","31","false","safe","risky","safe","50","1080","bandit","decision","bandit-task","115","772511","0.0-11.0-0.30","6179","401745","lowRank"
"104","3","32","false","safe","risky","safe","50","1001","bandit","decision","bandit-task","116","776207","0.0-11.0-0.31","6179","401745","lowRank"
"105","3","33","false","safe","risky","safe","90","1027","bandit","high_value","bandit-task","117","779759","0.0-11.0-0.32","6179","401745","lowRank"
"106","3","34","false","safe","risky","safe","90","906","bandit","high_value","bandit-task","118","783190","0.0-11.0-0.33","6179","401745","lowRank"
"107","3","35","false","risky","safe","risky","30","2449","bandit","decision","bandit-task","119","788110","0.0-11.0-0.34","6179","401745","lowRank"
"108","3","36","false","safe","risky","safe","50","976","bandit","decision","bandit-task","120","791533","0.0-11.0-0.35","6179","401745","lowRank"
"109","4","1","false","safe","risky","safe","50","2168","bandit","decision","bandit-task","122","807296","0.0-13.0-0.0","6179","401745","lowRank"
"110","4","2","false","safe","risky","safe","90","896","bandit","high_value","bandit-task","123","810703","0.0-13.0-0.1","6179","401745","lowRank"
"111","4","3","false","safe","risky","safe","90","769","bandit","high_value","bandit-task","124","813878","0.0-13.0-0.2","6179","401745","lowRank"
"112","4","4","false","risky","safe","safe","90","994","bandit","high_value","bandit-task","125","817308","0.0-13.0-0.3","6179","401745","lowRank"
"113","4","5","false","safe","risky","safe","90","817","bandit","high_value","bandit-task","126","820893","0.0-13.0-0.4","6179","401745","lowRank"
"114","4","6","false","safe","risky","safe","90","1074","bandit","high_value","bandit-task","127","824461","0.0-13.0-0.5","6179","401745","lowRank"
"115","4","7","false","safe","risky","safe","90","875","bandit","high_value","bandit-task","128","828047","0.0-13.0-0.6","6179","401745","lowRank"
"116","4","8","false","risky","safe","safe","90","1355","bandit","high_value","bandit-task","129","832009","0.0-13.0-0.7","6179","401745","lowRank"
"117","4","9","false","risky","safe","safe","50","1377","bandit","decision","bandit-task","130","836179","0.0-13.0-0.8","6179","401745","lowRank"
"118","4","10","false","safe","risky","safe","90","841","bandit","high_value","bandit-task","131","839610","0.0-13.0-0.9","6179","401745","lowRank"
"119","4","11","false","safe","risky","safe","90","784","bandit","high_value","bandit-task","132","842875","0.0-13.0-0.10","6179","401745","lowRank"
"120","4","12","false","safe","risky","safe","90","887","bandit","high_value","bandit-task","133","846394","0.0-13.0-0.11","6179","401745","lowRank"
"121","4","13","false","safe","risky","safe","50","1274","bandit","decision","bandit-task","134","850146","0.0-13.0-0.12","6179","401745","lowRank"
"122","4","14","false","risky","safe","safe","50","962","bandit","decision","bandit-task","135","853648","0.0-13.0-0.13","6179","401745","lowRank"
"123","4","15","false","risky","safe","safe","10","1193","bandit","low_value","bandit-task","136","857531","0.0-13.0-0.14","6179","401745","lowRank"
"124","4","16","false","risky","safe","safe","50","960","bandit","decision","bandit-task","137","860985","0.0-13.0-0.15","6179","401745","lowRank"
"125","4","17","false","safe","risky","safe","50","937","bandit","decision","bandit-task","138","864585","0.0-13.0-0.16","6179","401745","lowRank"
"126","4","18","false","safe","risky","safe","90","1139","bandit","high_value","bandit-task","139","868669","0.0-13.0-0.17","6179","401745","lowRank"
"127","4","19","false","safe","risky","safe","10","2094","bandit","low_value","bandit-task","140","873281","0.0-13.0-0.18","6179","401745","lowRank"
"128","4","20","false","risky","safe","safe","90","1017","bandit","high_value","bandit-task","141","876961","0.0-13.0-0.19","6179","401745","lowRank"
"129","4","21","false","safe","risky","safe","50","1018","bandit","decision","bandit-task","142","880491","0.0-13.0-0.20","6179","401745","lowRank"
"130","4","22","false","risky","safe","safe","10","1330","bandit","low_value","bandit-task","143","884459","0.0-13.0-0.21","6179","401745","lowRank"
"131","4","23","false","safe","risky","safe","50","1711","bandit","decision","bandit-task","144","888786","0.0-13.0-0.22","6179","401745","lowRank"
"132","4","24","false","safe","risky","safe","90","1322","bandit","high_value","bandit-task","145","892570","0.0-13.0-0.23","6179","401745","lowRank"
"133","4","25","false","risky","safe","safe","50","1016","bandit","decision","bandit-task","146","896050","0.0-13.0-0.24","6179","401745","lowRank"
"134","4","26","false","safe","risky","safe","10","841","bandit","low_value","bandit-task","147","899409","0.0-13.0-0.25","6179","401745","lowRank"
"135","4","27","false","risky","safe","safe","90","1412","bandit","high_value","bandit-task","148","903282","0.0-13.0-0.26","6179","401745","lowRank"
"136","4","28","false","risky","safe","safe","90","769","bandit","high_value","bandit-task","149","906489","0.0-13.0-0.27","6179","401745","lowRank"
"137","4","29","false","safe","risky","safe","90","855","bandit","high_value","bandit-task","150","909808","0.0-13.0-0.28","6179","401745","lowRank"
"138","4","30","false","risky","safe","safe","50","929","bandit","decision","bandit-task","151","913400","0.0-13.0-0.29","6179","401745","lowRank"
"139","4","31","false","safe","risky","safe","90","817","bandit","high_value","bandit-task","152","916671","0.0-13.0-0.30","6179","401745","lowRank"
"140","4","32","false","risky","safe","safe","90","768","bandit","high_value","bandit-task","153","920088","0.0-13.0-0.31","6179","401745","lowRank"
"141","4","33","false","safe","risky","safe","50","1040","bandit","decision","bandit-task","154","923905","0.0-13.0-0.32","6179","401745","lowRank"
"142","4","34","false","risky","safe","safe","50","833","bandit","decision","bandit-task","155","928163","0.0-13.0-0.33","6179","401745","lowRank"
"143","4","35","false","risky","safe","safe","90","953","bandit","high_value","bandit-task","156","931941","0.0-13.0-0.34","6179","401745","lowRank"
"144","4","36","false","risky","safe","safe","90","1032","bandit","high_value","bandit-task","157","935605","0.0-13.0-0.35","6179","401745","lowRank"
"145","5","1","false","risky","safe","safe","90","995","bandit","high_value","bandit-task","159","961416","0.0-15.0-0.0","6179","401745","lowRank"
"146","5","2","false","risky","safe","safe","90","2035","bandit","high_value","bandit-task","160","966677","0.0-15.0-0.1","6179","401745","lowRank"
"147","5","3","false","safe","risky","safe","90","990","bandit","high_value","bandit-task","161","970322","0.0-15.0-0.2","6179","401745","lowRank"
"148","5","4","false","safe","risky","safe","50","975","bandit","decision","bandit-task","162","973817","0.0-15.0-0.3","6179","401745","lowRank"
"149","5","5","false","safe","risky","safe","50","871","bandit","decision","bandit-task","163","977207","0.0-15.0-0.4","6179","401745","lowRank"
"150","5","6","false","risky","safe","safe","90","735","bandit","high_value","bandit-task","164","980333","0.0-15.0-0.5","6179","401745","lowRank"
"151","5","7","false","risky","safe","safe","90","799","bandit","high_value","bandit-task","165","983650","0.0-15.0-0.6","6179","401745","lowRank"
"152","5","8","false","risky","safe","safe","90","842","bandit","high_value","bandit-task","166","987620","0.0-15.0-0.7","6179","401745","lowRank"
"153","5","9","false","risky","safe","safe","90","1354","bandit","high_value","bandit-task","167","991484","0.0-15.0-0.8","6179","401745","lowRank"
"154","5","10","false","safe","risky","safe","50","1107","bandit","decision","bandit-task","168","995133","0.0-15.0-0.9","6179","401745","lowRank"
"155","5","11","false","risky","safe","safe","10","1332","bandit","low_value","bandit-task","169","998998","0.0-15.0-0.10","6179","401745","lowRank"
"156","5","12","false","safe","risky","safe","90","776","bandit","high_value","bandit-task","170","1002318","0.0-15.0-0.11","6179","401745","lowRank"
"157","5","13","false","risky","safe","safe","90","729","bandit","high_value","bandit-task","171","1005685","0.0-15.0-0.12","6179","401745","lowRank"
"158","5","14","false","risky","safe","safe","50","953","bandit","decision","bandit-task","172","1009591","0.0-15.0-0.13","6179","401745","lowRank"
"159","5","15","false","safe","risky","safe","90","825","bandit","high_value","bandit-task","173","1013135","0.0-15.0-0.14","6179","401745","lowRank"
"160","5","16","false","risky","safe","safe","90","688","bandit","high_value","bandit-task","174","1016294","0.0-15.0-0.15","6179","401745","lowRank"
"161","5","17","false","safe","risky","safe","90","776","bandit","high_value","bandit-task","175","1019596","0.0-15.0-0.16","6179","401745","lowRank"
"162","5","18","false","risky","safe","safe","90","647","bandit","high_value","bandit-task","176","1022826","0.0-15.0-0.17","6179","401745","lowRank"
"163","5","19","false","safe","risky","safe","90","769","bandit","high_value","bandit-task","177","1026757","0.0-15.0-0.18","6179","401745","lowRank"
"164","5","20","false","risky","safe","safe","50","1096","bandit","decision","bandit-task","178","1030598","0.0-15.0-0.19","6179","401745","lowRank"
"165","5","21","false","risky","safe","safe","10","1822","bandit","low_value","bandit-task","179","1035075","0.0-15.0-0.20","6179","401745","lowRank"
"166","5","22","false","risky","safe","safe","50","1144","bandit","decision","bandit-task","180","1038957","0.0-15.0-0.21","6179","401745","lowRank"
"167","5","23","false","safe","risky","risky","80","1065","bandit","high_value","bandit-task","181","1042632","0.0-15.0-0.22","6179","401745","lowRank"
"168","5","24","false","safe","risky","safe","90","1078","bandit","high_value","bandit-task","182","1046230","0.0-15.0-0.23","6179","401745","lowRank"
"169","5","25","false","safe","risky","safe","50","1193","bandit","decision","bandit-task","183","1049926","0.0-15.0-0.24","6179","401745","lowRank"
"170","5","26","false","safe","risky","safe","50","1017","bandit","decision","bandit-task","184","1053437","0.0-15.0-0.25","6179","401745","lowRank"
"171","5","27","false","risky","safe","safe","90","1299","bandit","high_value","bandit-task","185","1057303","0.0-15.0-0.26","6179","401745","lowRank"
"172","5","28","false","safe","risky","safe","90","1145","bandit","high_value","bandit-task","186","1060887","0.0-15.0-0.27","6179","401745","lowRank"
"173","5","29","false","safe","risky","safe","90","945","bandit","high_value","bandit-task","187","1064368","0.0-15.0-0.28","6179","401745","lowRank"
"174","5","30","false","safe","risky","safe","50","1152","bandit","decision","bandit-task","188","1068137","0.0-15.0-0.29","6179","401745","lowRank"
"175","5","31","false","risky","safe","safe","90","1273","bandit","high_value","bandit-task","189","1071864","0.0-15.0-0.30","6179","401745","lowRank"
"176","5","32","false","risky","safe","safe","50","1059","bandit","decision","bandit-task","190","1075449","0.0-15.0-0.31","6179","401745","lowRank"
"177","5","33","false","safe","risky","safe","50","799","bandit","decision","bandit-task","191","1079234","0.0-15.0-0.32","6179","401745","lowRank"
"178","5","34","false","safe","risky","safe","50","1339","bandit","decision","bandit-task","192","1083276","0.0-15.0-0.33","6179","401745","lowRank"
"179","5","35","false","safe","risky","safe","10","1653","bandit","low_value","bandit-task","193","1087665","0.0-15.0-0.34","6179","401745","lowRank"
"180","5","36","false","risky","safe","safe","10","945","bandit","low_value","bandit-task","194","1091523","0.0-15.0-0.35","6179","401745","lowRank"
"181","5","37","false","safe","risky","safe","50","6732","bandit","catch","bandit-task","207","1221847","0.0-23.0-0.0","6179","401745","lowRank"
"182","5","38","false","safe","safe","safe","90","3209","bandit","catch","bandit-task","208","1228139","0.0-23.0-0.1","6179","401745","lowRank"
"183","5","39","false","risky","safe","risky","100","3042","bandit","catch","bandit-task","209","1234425","0.0-23.0-0.2","6179","401745","lowRank"
"184","5","40","false","risky","risky","risky","80","3315","bandit","catch","bandit-task","210","1241480","0.0-23.0-0.3","6179","401745","lowRank"
"185","5","41","false","risky","risky","risky","100","1152","bandit","catch","bandit-task","211","1245524","0.0-23.0-0.4","6179","401745","lowRank"
"186","5","42","false","safe","safe","safe","90","2882","bandit","catch","bandit-task","212","1251270","0.0-23.0-0.5","6179","401745","lowRank"
"187","5","43","false","safe","risky","risky","100","2694","bandit","catch","bandit-task","213","1257297","0.0-23.0-0.6","6179","401745","lowRank"
"188","5","44","false","risky","risky","risky","70","3121","bandit","catch","bandit-task","214","1264193","0.0-23.0-0.7","6179","401745","lowRank"
"189","5","45","false","safe","risky","safe","90","2253","bandit","catch","bandit-task","215","1269354","0.0-23.0-0.8","6179","401745","lowRank"
"190","5","46","false","safe","safe","safe","50","1979","bandit","catch","bandit-task","216","1274881","0.0-23.0-0.9","6179","401745","lowRank"
"191","5","47","false","risky","safe","safe","90","2077","bandit","catch","bandit-task","217","1280740","0.0-23.0-0.10","6179","401745","lowRank"
"192","5","48","false","safe","risky","risky","30","4239","bandit","catch","bandit-task","218","1288079","0.0-23.0-0.11","6179","401745","lowRank"
"193","5","49","false","risky","safe","risky","80","1916","bandit","catch","bandit-task","219","1293478","0.0-23.0-0.12","6179","401745","lowRank"
"194","5","50","false","risky","risky","risky","30","2425","bandit","catch","bandit-task","220","1299104","0.0-23.0-0.13","6179","401745","lowRank"
"195","5","51","false","safe","risky","safe","90","2585","bandit","catch","bandit-task","221","1304432","0.0-23.0-0.14","6179","401745","lowRank"
"196","5","52","false","risky","safe","risky","70","4288","bandit","catch","bandit-task","222","1311641","0.0-23.0-0.15","6179","401745","lowRank"
"197","5","53","false","safe","risky","risky","100","1732","bandit","catch","bandit-task","223","1317572","0.0-23.0-0.16","6179","401745","lowRank"
"198","5","54","false","safe","safe","safe","90","1627","bandit","catch","bandit-task","224","1322482","0.0-23.0-0.17","6179","401745","lowRank"
"199","5","55","false","risky","risky","risky","100","1724","bandit","catch","bandit-task","225","1329129","0.0-23.0-0.18","6179","401745","lowRank"
"200","5","56","false","safe","safe","safe","50","3306","bandit","catch","bandit-task","226","1335551","0.0-23.0-0.19","6179","401745","lowRank"
"201","5","57","false","safe","safe","safe","90","1579","bandit","catch","bandit-task","227","1340083","0.0-23.0-0.20","6179","401745","lowRank"
"202","5","58","false","risky","safe","safe","90","1836","bandit","catch","bandit-task","228","1344463","0.0-23.0-0.21","6179","401745","lowRank"
"203","5","59","false","risky","risky","risky","80","3105","bandit","catch","bandit-task","229","1350587","0.0-23.0-0.22","6179","401745","lowRank"
"204","5","60","false","safe","risky","safe","50","1852","bandit","catch","bandit-task","230","1354984","0.0-23.0-0.23","6179","401745","lowRank"
